{
  "name": {
    "namespaceURI": "http://www.cdisc.org/ns/odm/v1.3",
    "localPart": "ODM",
    "prefix": "",
    "key": "{http://www.cdisc.org/ns/odm/v1.3}ODM",
    "string": "{http://www.cdisc.org/ns/odm/v1.3}ODM"
  },
  "value": {
    "TYPE_NAME": "define2_1_0.ODM",
    "odmVersion": "1.3.2",
    "fileType": "Snapshot",
    "fileOID": "TDF_ADaM.CDISC ADaM.2.1",
    "creationDateTime": {
      "year": 2018,
      "month": 11,
      "day": 19,
      "hour": 8,
      "minute": 44,
      "second": 2,
      "fractionalSecond": 0,
      "timezone": null,
      "date": "2018-11-19T08:44:02.000Z"
    },
    "study": [
      {
        "TYPE_NAME": "define2_1_0.ODMcomplexTypeDefinitionStudy",
        "oid": "TDF_ADaM.CDISC ADaM.2.1",
        "globalVariables": {
          "TYPE_NAME": "define2_1_0.ODMcomplexTypeDefinitionGlobalVariables",
          "studyName": {
            "TYPE_NAME": "define2_1_0.ODMcomplexTypeDefinitionStudyName",
            "value": "TDF_ADaM"
          },
          "studyDescription": {
            "TYPE_NAME": "define2_1_0.ODMcomplexTypeDefinitionStudyDescription",
            "value": "Test datasets created by updating existing CDISCPILOT ADaM datasets"
          },
          "protocolName": {
            "TYPE_NAME": "define2_1_0.ODMcomplexTypeDefinitionProtocolName",
            "value": "TDF_Datasets"
          }
        },
        "metaDataVersion": [
          {
            "TYPE_NAME": "define2_1_0.ODMcomplexTypeDefinitionMetaDataVersion",
            "oid": "MDV.TDF_ADaM.CDISC ADaM.2.1",
            "name": "Study TDF_ADaM Data Definitions",
            "description": "Test datasets created by updating existing CDISCPILOT ADaM datasets",
            "itemGroupDef": [
              {
                "TYPE_NAME": "define2_1_0.ODMcomplexTypeDefinitionItemGroupDef",
                "oid": "IG.ADADAS",
                "name": "ADADAS",
                "repeating": "Yes",
                "isReferenceData": "No",
                "sasDatasetName": "ADADAS",
                "purpose": "Analysis",
                "description": {
                  "TYPE_NAME": "define2_1_0.ODMcomplexTypeDefinitionDescription",
                  "translatedText": [
                    {
                      "TYPE_NAME": "define2_1_0.ODMcomplexTypeDefinitionTranslatedText",
                      "lang": "en",
                      "value": "ADAS-Cog Analysis"
                    }
                  ]
                },
                "itemRef": [
                  {
                    "TYPE_NAME": "define2_1_0.ODMcomplexTypeDefinitionItemRef",
                    "itemOID": "IT.ADADAS.STUDYID",
                    "orderNumber": 1,
                    "mandatory": "No",
                    "methodOID": "MT.ADQSADAS.STUDYID"
                  },
                  {
                    "TYPE_NAME": "define2_1_0.ODMcomplexTypeDefinitionItemRef",
                    "itemOID": "IT.ADADAS.SITEID",
                    "orderNumber": 2,
                    "mandatory": "No",
                    "methodOID": "MT.ADQSADAS.SITEID"
                  },
                  {
                    "TYPE_NAME": "define2_1_0.ODMcomplexTypeDefinitionItemRef",
                    "itemOID": "IT.ADADAS.SITEGR1",
                    "orderNumber": 3,
                    "mandatory": "No",
                    "methodOID": "MT.ADQSADAS.SITEGR1"
                  },
                  {
                    "TYPE_NAME": "define2_1_0.ODMcomplexTypeDefinitionItemRef",
                    "itemOID": "IT.ADADAS.USUBJID",
                    "orderNumber": 4,
                    "mandatory": "No",
                    "keySequence": 1,
                    "methodOID": "MT.ADQSADAS.USUBJID"
                  },
                  {
                    "TYPE_NAME": "define2_1_0.ODMcomplexTypeDefinitionItemRef",
                    "itemOID": "IT.ADADAS.TRTSDT",
                    "orderNumber": 5,
                    "mandatory": "No",
                    "methodOID": "MT.ADQSADAS.TRTSDT"
                  },
                  {
                    "TYPE_NAME": "define2_1_0.ODMcomplexTypeDefinitionItemRef",
                    "itemOID": "IT.ADADAS.TRTEDT",
                    "orderNumber": 6,
                    "mandatory": "No",
                    "methodOID": "MT.ADQSADAS.TRTEDT"
                  },
                  {
                    "TYPE_NAME": "define2_1_0.ODMcomplexTypeDefinitionItemRef",
                    "itemOID": "IT.ADADAS.TRTP",
                    "orderNumber": 7,
                    "mandatory": "No",
                    "methodOID": "MT.ADQSADAS.TRTP"
                  },
                  {
                    "TYPE_NAME": "define2_1_0.ODMcomplexTypeDefinitionItemRef",
                    "itemOID": "IT.ADADAS.TRTPN",
                    "orderNumber": 8,
                    "mandatory": "No",
                    "methodOID": "MT.ADQSADAS.TRTPN"
                  },
                  {
                    "TYPE_NAME": "define2_1_0.ODMcomplexTypeDefinitionItemRef",
                    "itemOID": "IT.ADADAS.AGE",
                    "orderNumber": 9,
                    "mandatory": "No",
                    "methodOID": "MT.ADQSADAS.AGE"
                  },
                  {
                    "TYPE_NAME": "define2_1_0.ODMcomplexTypeDefinitionItemRef",
                    "itemOID": "IT.ADADAS.AGEGR1",
                    "orderNumber": 10,
                    "mandatory": "No",
                    "methodOID": "MT.ADQSADAS.AGEGR1"
                  },
                  {
                    "TYPE_NAME": "define2_1_0.ODMcomplexTypeDefinitionItemRef",
                    "itemOID": "IT.ADADAS.AGEGR1N",
                    "orderNumber": 11,
                    "mandatory": "No",
                    "methodOID": "MT.ADQSADAS.AGEGR1N"
                  },
                  {
                    "TYPE_NAME": "define2_1_0.ODMcomplexTypeDefinitionItemRef",
                    "itemOID": "IT.ADADAS.RACE",
                    "orderNumber": 12,
                    "mandatory": "No",
                    "methodOID": "MT.ADQSADAS.RACE"
                  },
                  {
                    "TYPE_NAME": "define2_1_0.ODMcomplexTypeDefinitionItemRef",
                    "itemOID": "IT.ADADAS.RACEN",
                    "orderNumber": 13,
                    "mandatory": "No",
                    "methodOID": "MT.ADQSADAS.RACEN"
                  },
                  {
                    "TYPE_NAME": "define2_1_0.ODMcomplexTypeDefinitionItemRef",
                    "itemOID": "IT.ADADAS.SEX",
                    "orderNumber": 14,
                    "mandatory": "No",
                    "methodOID": "MT.ADQSADAS.SEX"
                  },
                  {
                    "TYPE_NAME": "define2_1_0.ODMcomplexTypeDefinitionItemRef",
                    "itemOID": "IT.ADADAS.ITTFL",
                    "orderNumber": 15,
                    "mandatory": "No",
                    "methodOID": "MT.ADQSADAS.ITTFL"
                  },
                  {
                    "TYPE_NAME": "define2_1_0.ODMcomplexTypeDefinitionItemRef",
                    "itemOID": "IT.ADADAS.EFFFL",
                    "orderNumber": 16,
                    "mandatory": "No",
                    "methodOID": "MT.ADQSADAS.EFFFL"
                  },
                  {
                    "TYPE_NAME": "define2_1_0.ODMcomplexTypeDefinitionItemRef",
                    "itemOID": "IT.ADADAS.COMP24FL",
                    "orderNumber": 17,
                    "mandatory": "No",
                    "methodOID": "MT.ADQSADAS.COMP24FL"
                  },
                  {
                    "TYPE_NAME": "define2_1_0.ODMcomplexTypeDefinitionItemRef",
                    "itemOID": "IT.ADADAS.AVISIT",
                    "orderNumber": 18,
                    "mandatory": "No",
                    "keySequence": 3,
                    "methodOID": "MT.ADQSADAS.AVISIT"
                  },
                  {
                    "TYPE_NAME": "define2_1_0.ODMcomplexTypeDefinitionItemRef",
                    "itemOID": "IT.ADADAS.AVISITN",
                    "orderNumber": 19,
                    "mandatory": "No",
                    "methodOID": "MT.ADQSADAS.AVISITN"
                  },
                  {
                    "TYPE_NAME": "define2_1_0.ODMcomplexTypeDefinitionItemRef",
                    "itemOID": "IT.ADADAS.VISIT",
                    "orderNumber": 20,
                    "mandatory": "No",
                    "methodOID": "MT.ADQSADAS.VISIT"
                  },
                  {
                    "TYPE_NAME": "define2_1_0.ODMcomplexTypeDefinitionItemRef",
                    "itemOID": "IT.ADADAS.VISITNUM",
                    "orderNumber": 21,
                    "mandatory": "No",
                    "methodOID": "MT.ADQSADAS.VISITNUM"
                  },
                  {
                    "TYPE_NAME": "define2_1_0.ODMcomplexTypeDefinitionItemRef",
                    "itemOID": "IT.ADADAS.ADY",
                    "orderNumber": 22,
                    "mandatory": "No",
                    "methodOID": "MT.ADQSADAS.ADY"
                  },
                  {
                    "TYPE_NAME": "define2_1_0.ODMcomplexTypeDefinitionItemRef",
                    "itemOID": "IT.ADADAS.ADT",
                    "orderNumber": 23,
                    "mandatory": "No",
                    "keySequence": 4,
                    "methodOID": "MT.ADQSADAS.ADT"
                  },
                  {
                    "TYPE_NAME": "define2_1_0.ODMcomplexTypeDefinitionItemRef",
                    "itemOID": "IT.ADADAS.PARAM",
                    "orderNumber": 24,
                    "mandatory": "No"
                  },
                  {
                    "TYPE_NAME": "define2_1_0.ODMcomplexTypeDefinitionItemRef",
                    "itemOID": "IT.ADADAS.PARAMCD",
                    "orderNumber": 25,
                    "mandatory": "No",
                    "keySequence": 2
                  },
                  {
                    "TYPE_NAME": "define2_1_0.ODMcomplexTypeDefinitionItemRef",
                    "itemOID": "IT.ADADAS.PARAMN",
                    "orderNumber": 26,
                    "mandatory": "No",
                    "methodOID": "MT.ADQSADAS.PARAMN"
                  },
                  {
                    "TYPE_NAME": "define2_1_0.ODMcomplexTypeDefinitionItemRef",
                    "itemOID": "IT.ADADAS.AVAL",
                    "orderNumber": 27,
                    "mandatory": "No"
                  },
                  {
                    "TYPE_NAME": "define2_1_0.ODMcomplexTypeDefinitionItemRef",
                    "itemOID": "IT.ADADAS.BASE",
                    "orderNumber": 28,
                    "mandatory": "No",
                    "methodOID": "MT.ADQSADAS.BASE"
                  },
                  {
                    "TYPE_NAME": "define2_1_0.ODMcomplexTypeDefinitionItemRef",
                    "itemOID": "IT.ADADAS.CHG",
                    "orderNumber": 29,
                    "mandatory": "No",
                    "methodOID": "MT.ADQSADAS.CHG"
                  },
                  {
                    "TYPE_NAME": "define2_1_0.ODMcomplexTypeDefinitionItemRef",
                    "itemOID": "IT.ADADAS.PCHG",
                    "orderNumber": 30,
                    "mandatory": "No",
                    "methodOID": "MT.ADQSADAS.PCHG"
                  },
                  {
                    "TYPE_NAME": "define2_1_0.ODMcomplexTypeDefinitionItemRef",
                    "itemOID": "IT.ADADAS.ABLFL",
                    "orderNumber": 31,
                    "mandatory": "No",
                    "methodOID": "MT.ADQSADAS.ABLFL"
                  },
                  {
                    "TYPE_NAME": "define2_1_0.ODMcomplexTypeDefinitionItemRef",
                    "itemOID": "IT.ADADAS.ANL01FL",
                    "orderNumber": 32,
                    "mandatory": "No",
                    "methodOID": "MT.ADQSADAS.ANL01FL"
                  },
                  {
                    "TYPE_NAME": "define2_1_0.ODMcomplexTypeDefinitionItemRef",
                    "itemOID": "IT.ADADAS.DTYPE",
                    "orderNumber": 33,
                    "mandatory": "No"
                  },
                  {
                    "TYPE_NAME": "define2_1_0.ODMcomplexTypeDefinitionItemRef",
                    "itemOID": "IT.ADADAS.AWRANGE",
                    "orderNumber": 34,
                    "mandatory": "No",
                    "methodOID": "MT.ADQSADAS.AWRANGE"
                  },
                  {
                    "TYPE_NAME": "define2_1_0.ODMcomplexTypeDefinitionItemRef",
                    "itemOID": "IT.ADADAS.AWTARGET",
                    "orderNumber": 35,
                    "mandatory": "No",
                    "methodOID": "MT.ADQSADAS.AWTARGET"
                  },
                  {
                    "TYPE_NAME": "define2_1_0.ODMcomplexTypeDefinitionItemRef",
                    "itemOID": "IT.ADADAS.AWTDIFF",
                    "orderNumber": 36,
                    "mandatory": "No",
                    "methodOID": "MT.ADQSADAS.AWTDIFF"
                  },
                  {
                    "TYPE_NAME": "define2_1_0.ODMcomplexTypeDefinitionItemRef",
                    "itemOID": "IT.ADADAS.AWLO",
                    "orderNumber": 37,
                    "mandatory": "No",
                    "methodOID": "MT.ADQSADAS.AWLO"
                  },
                  {
                    "TYPE_NAME": "define2_1_0.ODMcomplexTypeDefinitionItemRef",
                    "itemOID": "IT.ADADAS.AWHI",
                    "orderNumber": 38,
                    "mandatory": "No",
                    "methodOID": "MT.ADQSADAS.AWHI"
                  },
                  {
                    "TYPE_NAME": "define2_1_0.ODMcomplexTypeDefinitionItemRef",
                    "itemOID": "IT.ADADAS.AWU",
                    "orderNumber": 39,
                    "mandatory": "No",
                    "methodOID": "MT.ADQSADAS.AWU"
                  },
                  {
                    "TYPE_NAME": "define2_1_0.ODMcomplexTypeDefinitionItemRef",
                    "itemOID": "IT.ADADAS.QSSEQ",
                    "orderNumber": 40,
                    "mandatory": "No"
                  }
                ]
              },
              {
                "TYPE_NAME": "define2_1_0.ODMcomplexTypeDefinitionItemGroupDef",
                "oid": "IG.ADAE",
                "name": "ADAE",
                "repeating": "Yes",
                "isReferenceData": "No",
                "sasDatasetName": "ADAE",
                "purpose": "Analysis",
                "description": {
                  "TYPE_NAME": "define2_1_0.ODMcomplexTypeDefinitionDescription",
                  "translatedText": [
                    {
                      "TYPE_NAME": "define2_1_0.ODMcomplexTypeDefinitionTranslatedText",
                      "lang": "en",
                      "value": "Adverse Events Analysis Dataset"
                    }
                  ]
                },
                "itemRef": [
                  {
                    "TYPE_NAME": "define2_1_0.ODMcomplexTypeDefinitionItemRef",
                    "itemOID": "IT.ADAE.STUDYID",
                    "orderNumber": 1,
                    "mandatory": "No",
                    "methodOID": "MT.ADAE.STUDYID"
                  },
                  {
                    "TYPE_NAME": "define2_1_0.ODMcomplexTypeDefinitionItemRef",
                    "itemOID": "IT.ADAE.SITEID",
                    "orderNumber": 2,
                    "mandatory": "No",
                    "methodOID": "MT.ADAE.SITEID"
                  },
                  {
                    "TYPE_NAME": "define2_1_0.ODMcomplexTypeDefinitionItemRef",
                    "itemOID": "IT.ADAE.USUBJID",
                    "orderNumber": 3,
                    "mandatory": "No",
                    "keySequence": 1,
                    "methodOID": "MT.ADAE.USUBJID"
                  },
                  {
                    "TYPE_NAME": "define2_1_0.ODMcomplexTypeDefinitionItemRef",
                    "itemOID": "IT.ADAE.TRTA",
                    "orderNumber": 4,
                    "mandatory": "No",
                    "methodOID": "MT.ADAE.TRTA"
                  },
                  {
                    "TYPE_NAME": "define2_1_0.ODMcomplexTypeDefinitionItemRef",
                    "itemOID": "IT.ADAE.TRTAN",
                    "orderNumber": 5,
                    "mandatory": "No",
                    "methodOID": "MT.ADAE.TRTAN"
                  },
                  {
                    "TYPE_NAME": "define2_1_0.ODMcomplexTypeDefinitionItemRef",
                    "itemOID": "IT.ADAE.AGE",
                    "orderNumber": 6,
                    "mandatory": "No",
                    "methodOID": "MT.ADAE.AGE"
                  },
                  {
                    "TYPE_NAME": "define2_1_0.ODMcomplexTypeDefinitionItemRef",
                    "itemOID": "IT.ADAE.AGEGR1",
                    "orderNumber": 7,
                    "mandatory": "No",
                    "methodOID": "MT.ADAE.AGEGR1"
                  },
                  {
                    "TYPE_NAME": "define2_1_0.ODMcomplexTypeDefinitionItemRef",
                    "itemOID": "IT.ADAE.AGEGR1N",
                    "orderNumber": 8,
                    "mandatory": "No",
                    "methodOID": "MT.ADAE.AGEGR1N"
                  },
                  {
                    "TYPE_NAME": "define2_1_0.ODMcomplexTypeDefinitionItemRef",
                    "itemOID": "IT.ADAE.RACE",
                    "orderNumber": 9,
                    "mandatory": "No",
                    "methodOID": "MT.ADAE.RACE"
                  },
                  {
                    "TYPE_NAME": "define2_1_0.ODMcomplexTypeDefinitionItemRef",
                    "itemOID": "IT.ADAE.RACEN",
                    "orderNumber": 10,
                    "mandatory": "No",
                    "methodOID": "MT.ADAE.RACEN"
                  },
                  {
                    "TYPE_NAME": "define2_1_0.ODMcomplexTypeDefinitionItemRef",
                    "itemOID": "IT.ADAE.SEX",
                    "orderNumber": 11,
                    "mandatory": "No",
                    "methodOID": "MT.ADAE.SEX"
                  },
                  {
                    "TYPE_NAME": "define2_1_0.ODMcomplexTypeDefinitionItemRef",
                    "itemOID": "IT.ADAE.SAFFL",
                    "orderNumber": 12,
                    "mandatory": "No",
                    "methodOID": "MT.ADAE.SAFFL"
                  },
                  {
                    "TYPE_NAME": "define2_1_0.ODMcomplexTypeDefinitionItemRef",
                    "itemOID": "IT.ADAE.TRTSDT",
                    "orderNumber": 13,
                    "mandatory": "No",
                    "methodOID": "MT.ADAE.TRTSDT"
                  },
                  {
                    "TYPE_NAME": "define2_1_0.ODMcomplexTypeDefinitionItemRef",
                    "itemOID": "IT.ADAE.TRTEDT",
                    "orderNumber": 14,
                    "mandatory": "No",
                    "methodOID": "MT.ADAE.TRTEDT"
                  },
                  {
                    "TYPE_NAME": "define2_1_0.ODMcomplexTypeDefinitionItemRef",
                    "itemOID": "IT.ADAE.ASTDT",
                    "orderNumber": 15,
                    "mandatory": "No",
                    "keySequence": 3,
                    "methodOID": "MT.ADAE.ASTDT"
                  },
                  {
                    "TYPE_NAME": "define2_1_0.ODMcomplexTypeDefinitionItemRef",
                    "itemOID": "IT.ADAE.ASTDTF",
                    "orderNumber": 16,
                    "mandatory": "No",
                    "methodOID": "MT.ADAE.ASTDTF"
                  },
                  {
                    "TYPE_NAME": "define2_1_0.ODMcomplexTypeDefinitionItemRef",
                    "itemOID": "IT.ADAE.ASTDY",
                    "orderNumber": 17,
                    "mandatory": "No",
                    "methodOID": "MT.ADAE.ASTDY"
                  },
                  {
                    "TYPE_NAME": "define2_1_0.ODMcomplexTypeDefinitionItemRef",
                    "itemOID": "IT.ADAE.AENDT",
                    "orderNumber": 18,
                    "mandatory": "No",
                    "methodOID": "MT.ADAE.AENDT"
                  },
                  {
                    "TYPE_NAME": "define2_1_0.ODMcomplexTypeDefinitionItemRef",
                    "itemOID": "IT.ADAE.AENDY",
                    "orderNumber": 19,
                    "mandatory": "No",
                    "methodOID": "MT.ADAE.AENDY"
                  },
                  {
                    "TYPE_NAME": "define2_1_0.ODMcomplexTypeDefinitionItemRef",
                    "itemOID": "IT.ADAE.ADURN",
                    "orderNumber": 20,
                    "mandatory": "No",
                    "methodOID": "MT.ADAE.ADURN"
                  },
                  {
                    "TYPE_NAME": "define2_1_0.ODMcomplexTypeDefinitionItemRef",
                    "itemOID": "IT.ADAE.ADURU",
                    "orderNumber": 21,
                    "mandatory": "No",
                    "methodOID": "MT.ADAE.ADURU"
                  },
                  {
                    "TYPE_NAME": "define2_1_0.ODMcomplexTypeDefinitionItemRef",
                    "itemOID": "IT.ADAE.AETERM",
                    "orderNumber": 22,
                    "mandatory": "No",
                    "keySequence": 2,
                    "methodOID": "MT.ADAE.AETERM"
                  },
                  {
                    "TYPE_NAME": "define2_1_0.ODMcomplexTypeDefinitionItemRef",
                    "itemOID": "IT.ADAE.AELLT",
                    "orderNumber": 23,
                    "mandatory": "No",
                    "methodOID": "MT.ADAE.AELLT"
                  },
                  {
                    "TYPE_NAME": "define2_1_0.ODMcomplexTypeDefinitionItemRef",
                    "itemOID": "IT.ADAE.AELLTCD",
                    "orderNumber": 24,
                    "mandatory": "No",
                    "methodOID": "MT.ADAE.AELLTCD"
                  },
                  {
                    "TYPE_NAME": "define2_1_0.ODMcomplexTypeDefinitionItemRef",
                    "itemOID": "IT.ADAE.AEDECOD",
                    "orderNumber": 25,
                    "mandatory": "No",
                    "methodOID": "MT.ADAE.AEDECOD"
                  },
                  {
                    "TYPE_NAME": "define2_1_0.ODMcomplexTypeDefinitionItemRef",
                    "itemOID": "IT.ADAE.AEPTCD",
                    "orderNumber": 26,
                    "mandatory": "No",
                    "methodOID": "MT.ADAE.AEPTCD"
                  },
                  {
                    "TYPE_NAME": "define2_1_0.ODMcomplexTypeDefinitionItemRef",
                    "itemOID": "IT.ADAE.AEHLT",
                    "orderNumber": 27,
                    "mandatory": "No",
                    "methodOID": "MT.ADAE.AEHLT"
                  },
                  {
                    "TYPE_NAME": "define2_1_0.ODMcomplexTypeDefinitionItemRef",
                    "itemOID": "IT.ADAE.AEHLTCD",
                    "orderNumber": 28,
                    "mandatory": "No",
                    "methodOID": "MT.ADAE.AEHLTCD"
                  },
                  {
                    "TYPE_NAME": "define2_1_0.ODMcomplexTypeDefinitionItemRef",
                    "itemOID": "IT.ADAE.AEHLGT",
                    "orderNumber": 29,
                    "mandatory": "No",
                    "methodOID": "MT.ADAE.AEHLGT"
                  },
                  {
                    "TYPE_NAME": "define2_1_0.ODMcomplexTypeDefinitionItemRef",
                    "itemOID": "IT.ADAE.AEHLGTCD",
                    "orderNumber": 30,
                    "mandatory": "No",
                    "methodOID": "MT.ADAE.AEHLGTCD"
                  },
                  {
                    "TYPE_NAME": "define2_1_0.ODMcomplexTypeDefinitionItemRef",
                    "itemOID": "IT.ADAE.AEBODSYS",
                    "orderNumber": 31,
                    "mandatory": "No",
                    "methodOID": "MT.ADAE.AEBODSYS"
                  },
                  {
                    "TYPE_NAME": "define2_1_0.ODMcomplexTypeDefinitionItemRef",
                    "itemOID": "IT.ADAE.AESOC",
                    "orderNumber": 32,
                    "mandatory": "No",
                    "methodOID": "MT.ADAE.AESOC"
                  },
                  {
                    "TYPE_NAME": "define2_1_0.ODMcomplexTypeDefinitionItemRef",
                    "itemOID": "IT.ADAE.AESOCCD",
                    "orderNumber": 33,
                    "mandatory": "No",
                    "methodOID": "MT.ADAE.AESOCCD"
                  },
                  {
                    "TYPE_NAME": "define2_1_0.ODMcomplexTypeDefinitionItemRef",
                    "itemOID": "IT.ADAE.AESEV",
                    "orderNumber": 34,
                    "mandatory": "No",
                    "methodOID": "MT.ADAE.AESEV"
                  },
                  {
                    "TYPE_NAME": "define2_1_0.ODMcomplexTypeDefinitionItemRef",
                    "itemOID": "IT.ADAE.AESER",
                    "orderNumber": 35,
                    "mandatory": "No",
                    "methodOID": "MT.ADAE.AESER"
                  },
                  {
                    "TYPE_NAME": "define2_1_0.ODMcomplexTypeDefinitionItemRef",
                    "itemOID": "IT.ADAE.AESCAN",
                    "orderNumber": 36,
                    "mandatory": "No",
                    "methodOID": "MT.ADAE.AESCAN"
                  },
                  {
                    "TYPE_NAME": "define2_1_0.ODMcomplexTypeDefinitionItemRef",
                    "itemOID": "IT.ADAE.AESCONG",
                    "orderNumber": 37,
                    "mandatory": "No",
                    "methodOID": "MT.ADAE.AESCONG"
                  },
                  {
                    "TYPE_NAME": "define2_1_0.ODMcomplexTypeDefinitionItemRef",
                    "itemOID": "IT.ADAE.AESDISAB",
                    "orderNumber": 38,
                    "mandatory": "No",
                    "methodOID": "MT.ADAE.AESDISAB"
                  },
                  {
                    "TYPE_NAME": "define2_1_0.ODMcomplexTypeDefinitionItemRef",
                    "itemOID": "IT.ADAE.AESDTH",
                    "orderNumber": 39,
                    "mandatory": "No",
                    "methodOID": "MT.ADAE.AESDTH"
                  },
                  {
                    "TYPE_NAME": "define2_1_0.ODMcomplexTypeDefinitionItemRef",
                    "itemOID": "IT.ADAE.AESHOSP",
                    "orderNumber": 40,
                    "mandatory": "No",
                    "methodOID": "MT.ADAE.AESHOSP"
                  },
                  {
                    "TYPE_NAME": "define2_1_0.ODMcomplexTypeDefinitionItemRef",
                    "itemOID": "IT.ADAE.AESLIFE",
                    "orderNumber": 41,
                    "mandatory": "No",
                    "methodOID": "MT.ADAE.AESLIFE"
                  },
                  {
                    "TYPE_NAME": "define2_1_0.ODMcomplexTypeDefinitionItemRef",
                    "itemOID": "IT.ADAE.AESOD",
                    "orderNumber": 42,
                    "mandatory": "No",
                    "methodOID": "MT.ADAE.AESOD"
                  },
                  {
                    "TYPE_NAME": "define2_1_0.ODMcomplexTypeDefinitionItemRef",
                    "itemOID": "IT.ADAE.AEREL",
                    "orderNumber": 43,
                    "mandatory": "No",
                    "methodOID": "MT.ADAE.AEREL"
                  },
                  {
                    "TYPE_NAME": "define2_1_0.ODMcomplexTypeDefinitionItemRef",
                    "itemOID": "IT.ADAE.AEACN",
                    "orderNumber": 44,
                    "mandatory": "No",
                    "methodOID": "MT.ADAE.AEACN"
                  },
                  {
                    "TYPE_NAME": "define2_1_0.ODMcomplexTypeDefinitionItemRef",
                    "itemOID": "IT.ADAE.AEOUT",
                    "orderNumber": 45,
                    "mandatory": "No",
                    "methodOID": "MT.ADAE.AEOUT"
                  },
                  {
                    "TYPE_NAME": "define2_1_0.ODMcomplexTypeDefinitionItemRef",
                    "itemOID": "IT.ADAE.AESEQ",
                    "orderNumber": 46,
                    "mandatory": "No",
                    "keySequence": 4,
                    "methodOID": "MT.ADAE.AESEQ"
                  },
                  {
                    "TYPE_NAME": "define2_1_0.ODMcomplexTypeDefinitionItemRef",
                    "itemOID": "IT.ADAE.TRTEMFL",
                    "orderNumber": 47,
                    "mandatory": "No",
                    "methodOID": "MT.ADAE.TRTEMFL"
                  },
                  {
                    "TYPE_NAME": "define2_1_0.ODMcomplexTypeDefinitionItemRef",
                    "itemOID": "IT.ADAE.AOCCFL",
                    "orderNumber": 48,
                    "mandatory": "No",
                    "methodOID": "MT.ADAE.AOCCFL"
                  },
                  {
                    "TYPE_NAME": "define2_1_0.ODMcomplexTypeDefinitionItemRef",
                    "itemOID": "IT.ADAE.AOCCSFL",
                    "orderNumber": 49,
                    "mandatory": "No",
                    "methodOID": "MT.ADAE.AOCCSFL"
                  },
                  {
                    "TYPE_NAME": "define2_1_0.ODMcomplexTypeDefinitionItemRef",
                    "itemOID": "IT.ADAE.AOCCPFL",
                    "orderNumber": 50,
                    "mandatory": "No",
                    "methodOID": "MT.ADAE.AOCCPFL"
                  },
                  {
                    "TYPE_NAME": "define2_1_0.ODMcomplexTypeDefinitionItemRef",
                    "itemOID": "IT.ADAE.AOCC02FL",
                    "orderNumber": 51,
                    "mandatory": "No",
                    "methodOID": "MT.ADAE.AOCC02FL"
                  },
                  {
                    "TYPE_NAME": "define2_1_0.ODMcomplexTypeDefinitionItemRef",
                    "itemOID": "IT.ADAE.AOCC03FL",
                    "orderNumber": 52,
                    "mandatory": "No",
                    "methodOID": "MT.ADAE.AOCC03FL"
                  },
                  {
                    "TYPE_NAME": "define2_1_0.ODMcomplexTypeDefinitionItemRef",
                    "itemOID": "IT.ADAE.AOCC04FL",
                    "orderNumber": 53,
                    "mandatory": "No",
                    "methodOID": "MT.ADAE.AOCC04FL"
                  },
                  {
                    "TYPE_NAME": "define2_1_0.ODMcomplexTypeDefinitionItemRef",
                    "itemOID": "IT.ADAE.CQ01NAM",
                    "orderNumber": 54,
                    "mandatory": "No",
                    "methodOID": "MT.ADAE.CQ01NAM"
                  },
                  {
                    "TYPE_NAME": "define2_1_0.ODMcomplexTypeDefinitionItemRef",
                    "itemOID": "IT.ADAE.AOCC01FL",
                    "orderNumber": 55,
                    "mandatory": "No",
                    "methodOID": "MT.ADAE.AOCC01FL"
                  }
                ]
              },
              {
                "TYPE_NAME": "define2_1_0.ODMcomplexTypeDefinitionItemGroupDef",
                "oid": "IG.ADCIBC",
                "name": "ADCIBC",
                "repeating": "Yes",
                "isReferenceData": "No",
                "sasDatasetName": "ADCIBC",
                "purpose": "Analysis",
                "description": {
                  "TYPE_NAME": "define2_1_0.ODMcomplexTypeDefinitionDescription",
                  "translatedText": [
                    {
                      "TYPE_NAME": "define2_1_0.ODMcomplexTypeDefinitionTranslatedText",
                      "lang": "en",
                      "value": "CIBIC+ Analysis"
                    }
                  ]
                },
                "itemRef": [
                  {
                    "TYPE_NAME": "define2_1_0.ODMcomplexTypeDefinitionItemRef",
                    "itemOID": "IT.ADCIBC.STUDYID",
                    "orderNumber": 1,
                    "mandatory": "No",
                    "methodOID": "MT.ADQSCIBC.STUDYID"
                  },
                  {
                    "TYPE_NAME": "define2_1_0.ODMcomplexTypeDefinitionItemRef",
                    "itemOID": "IT.ADCIBC.SITEID",
                    "orderNumber": 2,
                    "mandatory": "No",
                    "methodOID": "MT.ADQSCIBC.SITEID"
                  },
                  {
                    "TYPE_NAME": "define2_1_0.ODMcomplexTypeDefinitionItemRef",
                    "itemOID": "IT.ADCIBC.SITEGR1",
                    "orderNumber": 3,
                    "mandatory": "No",
                    "methodOID": "MT.ADQSCIBC.SITEGR1"
                  },
                  {
                    "TYPE_NAME": "define2_1_0.ODMcomplexTypeDefinitionItemRef",
                    "itemOID": "IT.ADCIBC.USUBJID",
                    "orderNumber": 4,
                    "mandatory": "No",
                    "keySequence": 1,
                    "methodOID": "MT.ADQSCIBC.USUBJID"
                  },
                  {
                    "TYPE_NAME": "define2_1_0.ODMcomplexTypeDefinitionItemRef",
                    "itemOID": "IT.ADCIBC.TRTSDT",
                    "orderNumber": 5,
                    "mandatory": "No",
                    "methodOID": "MT.ADQSCIBC.TRTSDT"
                  },
                  {
                    "TYPE_NAME": "define2_1_0.ODMcomplexTypeDefinitionItemRef",
                    "itemOID": "IT.ADCIBC.TRTEDT",
                    "orderNumber": 6,
                    "mandatory": "No",
                    "methodOID": "MT.ADQSCIBC.TRTEDT"
                  },
                  {
                    "TYPE_NAME": "define2_1_0.ODMcomplexTypeDefinitionItemRef",
                    "itemOID": "IT.ADCIBC.TRTP",
                    "orderNumber": 7,
                    "mandatory": "No",
                    "methodOID": "MT.ADQSCIBC.TRTP"
                  },
                  {
                    "TYPE_NAME": "define2_1_0.ODMcomplexTypeDefinitionItemRef",
                    "itemOID": "IT.ADCIBC.TRTPN",
                    "orderNumber": 8,
                    "mandatory": "No",
                    "methodOID": "MT.ADQSCIBC.TRTPN"
                  },
                  {
                    "TYPE_NAME": "define2_1_0.ODMcomplexTypeDefinitionItemRef",
                    "itemOID": "IT.ADCIBC.AGE",
                    "orderNumber": 9,
                    "mandatory": "No",
                    "methodOID": "MT.ADQSCIBC.AGE"
                  },
                  {
                    "TYPE_NAME": "define2_1_0.ODMcomplexTypeDefinitionItemRef",
                    "itemOID": "IT.ADCIBC.AGEGR1",
                    "orderNumber": 10,
                    "mandatory": "No",
                    "methodOID": "MT.ADQSCIBC.AGEGR1"
                  },
                  {
                    "TYPE_NAME": "define2_1_0.ODMcomplexTypeDefinitionItemRef",
                    "itemOID": "IT.ADCIBC.AGEGR1N",
                    "orderNumber": 11,
                    "mandatory": "No",
                    "methodOID": "MT.ADQSCIBC.AGEGR1N"
                  },
                  {
                    "TYPE_NAME": "define2_1_0.ODMcomplexTypeDefinitionItemRef",
                    "itemOID": "IT.ADCIBC.RACE",
                    "orderNumber": 12,
                    "mandatory": "No",
                    "methodOID": "MT.ADQSCIBC.RACE"
                  },
                  {
                    "TYPE_NAME": "define2_1_0.ODMcomplexTypeDefinitionItemRef",
                    "itemOID": "IT.ADCIBC.RACEN",
                    "orderNumber": 13,
                    "mandatory": "No",
                    "methodOID": "MT.ADQSCIBC.RACEN"
                  },
                  {
                    "TYPE_NAME": "define2_1_0.ODMcomplexTypeDefinitionItemRef",
                    "itemOID": "IT.ADCIBC.SEX",
                    "orderNumber": 14,
                    "mandatory": "No",
                    "methodOID": "MT.ADQSCIBC.SEX"
                  },
                  {
                    "TYPE_NAME": "define2_1_0.ODMcomplexTypeDefinitionItemRef",
                    "itemOID": "IT.ADCIBC.ITTFL",
                    "orderNumber": 15,
                    "mandatory": "No",
                    "methodOID": "MT.ADQSCIBC.ITTFL"
                  },
                  {
                    "TYPE_NAME": "define2_1_0.ODMcomplexTypeDefinitionItemRef",
                    "itemOID": "IT.ADCIBC.EFFFL",
                    "orderNumber": 16,
                    "mandatory": "No",
                    "methodOID": "MT.ADQSCIBC.EFFFL"
                  },
                  {
                    "TYPE_NAME": "define2_1_0.ODMcomplexTypeDefinitionItemRef",
                    "itemOID": "IT.ADCIBC.COMP24FL",
                    "orderNumber": 17,
                    "mandatory": "No",
                    "methodOID": "MT.ADQSCIBC.COMP24FL"
                  },
                  {
                    "TYPE_NAME": "define2_1_0.ODMcomplexTypeDefinitionItemRef",
                    "itemOID": "IT.ADCIBC.AVISIT",
                    "orderNumber": 18,
                    "mandatory": "No",
                    "keySequence": 3,
                    "methodOID": "MT.ADQSCIBC.AVISIT"
                  },
                  {
                    "TYPE_NAME": "define2_1_0.ODMcomplexTypeDefinitionItemRef",
                    "itemOID": "IT.ADCIBC.AVISITN",
                    "orderNumber": 19,
                    "mandatory": "No",
                    "methodOID": "MT.ADQSCIBC.AVISITN"
                  },
                  {
                    "TYPE_NAME": "define2_1_0.ODMcomplexTypeDefinitionItemRef",
                    "itemOID": "IT.ADCIBC.VISIT",
                    "orderNumber": 20,
                    "mandatory": "No",
                    "methodOID": "MT.ADQSCIBC.VISIT"
                  },
                  {
                    "TYPE_NAME": "define2_1_0.ODMcomplexTypeDefinitionItemRef",
                    "itemOID": "IT.ADCIBC.VISITNUM",
                    "orderNumber": 21,
                    "mandatory": "No",
                    "methodOID": "MT.ADQSCIBC.VISITNUM"
                  },
                  {
                    "TYPE_NAME": "define2_1_0.ODMcomplexTypeDefinitionItemRef",
                    "itemOID": "IT.ADCIBC.ADY",
                    "orderNumber": 22,
                    "mandatory": "No",
                    "methodOID": "MT.ADQSCIBC.ADY"
                  },
                  {
                    "TYPE_NAME": "define2_1_0.ODMcomplexTypeDefinitionItemRef",
                    "itemOID": "IT.ADCIBC.ADT",
                    "orderNumber": 23,
                    "mandatory": "No",
                    "keySequence": 4,
                    "methodOID": "MT.ADQSCIBC.ADT"
                  },
                  {
                    "TYPE_NAME": "define2_1_0.ODMcomplexTypeDefinitionItemRef",
                    "itemOID": "IT.ADCIBC.PARAMCD",
                    "orderNumber": 24,
                    "mandatory": "No",
                    "keySequence": 2,
                    "methodOID": "MT.ADQSCIBC.PARAMCD"
                  },
                  {
                    "TYPE_NAME": "define2_1_0.ODMcomplexTypeDefinitionItemRef",
                    "itemOID": "IT.ADCIBC.PARAM",
                    "orderNumber": 25,
                    "mandatory": "No",
                    "methodOID": "MT.ADQSCIBC.PARAM"
                  },
                  {
                    "TYPE_NAME": "define2_1_0.ODMcomplexTypeDefinitionItemRef",
                    "itemOID": "IT.ADCIBC.PARAMN",
                    "orderNumber": 26,
                    "mandatory": "No",
                    "methodOID": "MT.ADQSCIBC.PARAMN"
                  },
                  {
                    "TYPE_NAME": "define2_1_0.ODMcomplexTypeDefinitionItemRef",
                    "itemOID": "IT.ADCIBC.AVAL",
                    "orderNumber": 27,
                    "mandatory": "No",
                    "methodOID": "MT.ADQSCIBC.AVAL"
                  },
                  {
                    "TYPE_NAME": "define2_1_0.ODMcomplexTypeDefinitionItemRef",
                    "itemOID": "IT.ADCIBC.ANL01FL",
                    "orderNumber": 28,
                    "mandatory": "No",
                    "methodOID": "MT.ADQSCIBC.ANL01FL"
                  },
                  {
                    "TYPE_NAME": "define2_1_0.ODMcomplexTypeDefinitionItemRef",
                    "itemOID": "IT.ADCIBC.DTYPE",
                    "orderNumber": 29,
                    "mandatory": "No",
                    "methodOID": "MT.ADQSCIBC.DTYPE"
                  },
                  {
                    "TYPE_NAME": "define2_1_0.ODMcomplexTypeDefinitionItemRef",
                    "itemOID": "IT.ADCIBC.AWRANGE",
                    "orderNumber": 30,
                    "mandatory": "No",
                    "methodOID": "MT.ADQSCIBC.AWRANGE"
                  },
                  {
                    "TYPE_NAME": "define2_1_0.ODMcomplexTypeDefinitionItemRef",
                    "itemOID": "IT.ADCIBC.AWTARGET",
                    "orderNumber": 31,
                    "mandatory": "No",
                    "methodOID": "MT.ADQSCIBC.AWTARGET"
                  },
                  {
                    "TYPE_NAME": "define2_1_0.ODMcomplexTypeDefinitionItemRef",
                    "itemOID": "IT.ADCIBC.AWTDIFF",
                    "orderNumber": 32,
                    "mandatory": "No",
                    "methodOID": "MT.ADQSCIBC.AWTDIFF"
                  },
                  {
                    "TYPE_NAME": "define2_1_0.ODMcomplexTypeDefinitionItemRef",
                    "itemOID": "IT.ADCIBC.AWLO",
                    "orderNumber": 33,
                    "mandatory": "No",
                    "methodOID": "MT.ADQSCIBC.AWLO"
                  },
                  {
                    "TYPE_NAME": "define2_1_0.ODMcomplexTypeDefinitionItemRef",
                    "itemOID": "IT.ADCIBC.AWHI",
                    "orderNumber": 34,
                    "mandatory": "No",
                    "methodOID": "MT.ADQSCIBC.AWHI"
                  },
                  {
                    "TYPE_NAME": "define2_1_0.ODMcomplexTypeDefinitionItemRef",
                    "itemOID": "IT.ADCIBC.AWU",
                    "orderNumber": 35,
                    "mandatory": "No",
                    "methodOID": "MT.ADQSCIBC.AWU"
                  },
                  {
                    "TYPE_NAME": "define2_1_0.ODMcomplexTypeDefinitionItemRef",
                    "itemOID": "IT.ADCIBC.QSSEQ",
                    "orderNumber": 36,
                    "mandatory": "No",
                    "methodOID": "MT.ADQSCIBC.QSSEQ"
                  }
                ]
              },
              {
                "TYPE_NAME": "define2_1_0.ODMcomplexTypeDefinitionItemGroupDef",
                "oid": "IG.ADLBC",
                "name": "ADLBC",
                "repeating": "Yes",
                "isReferenceData": "No",
                "sasDatasetName": "ADLBC",
                "purpose": "Analysis",
                "description": {
                  "TYPE_NAME": "define2_1_0.ODMcomplexTypeDefinitionDescription",
                  "translatedText": [
                    {
                      "TYPE_NAME": "define2_1_0.ODMcomplexTypeDefinitionTranslatedText",
                      "lang": "en",
                      "value": "Analysis Dataset Lab Blood Chemistry"
                    }
                  ]
                },
                "itemRef": [
                  {
                    "TYPE_NAME": "define2_1_0.ODMcomplexTypeDefinitionItemRef",
                    "itemOID": "IT.ADLBC.STUDYID",
                    "orderNumber": 1,
                    "mandatory": "No",
                    "methodOID": "MT.ADLBC.STUDYID"
                  },
                  {
                    "TYPE_NAME": "define2_1_0.ODMcomplexTypeDefinitionItemRef",
                    "itemOID": "IT.ADLBC.SUBJID",
                    "orderNumber": 2,
                    "mandatory": "No",
                    "methodOID": "MT.ADLBC.SUBJID"
                  },
                  {
                    "TYPE_NAME": "define2_1_0.ODMcomplexTypeDefinitionItemRef",
                    "itemOID": "IT.ADLBC.USUBJID",
                    "orderNumber": 3,
                    "mandatory": "No",
                    "keySequence": 1,
                    "methodOID": "MT.ADLBC.USUBJID"
                  },
                  {
                    "TYPE_NAME": "define2_1_0.ODMcomplexTypeDefinitionItemRef",
                    "itemOID": "IT.ADLBC.TRTP",
                    "orderNumber": 4,
                    "mandatory": "No",
                    "methodOID": "MT.ADLBC.TRTP"
                  },
                  {
                    "TYPE_NAME": "define2_1_0.ODMcomplexTypeDefinitionItemRef",
                    "itemOID": "IT.ADLBC.TRTPN",
                    "orderNumber": 5,
                    "mandatory": "No",
                    "methodOID": "MT.ADLBC.TRTPN"
                  },
                  {
                    "TYPE_NAME": "define2_1_0.ODMcomplexTypeDefinitionItemRef",
                    "itemOID": "IT.ADLBC.TRTA",
                    "orderNumber": 6,
                    "mandatory": "No",
                    "methodOID": "MT.ADLBC.TRTA"
                  },
                  {
                    "TYPE_NAME": "define2_1_0.ODMcomplexTypeDefinitionItemRef",
                    "itemOID": "IT.ADLBC.TRTAN",
                    "orderNumber": 7,
                    "mandatory": "No",
                    "methodOID": "MT.ADLBC.TRTAN"
                  },
                  {
                    "TYPE_NAME": "define2_1_0.ODMcomplexTypeDefinitionItemRef",
                    "itemOID": "IT.ADLBC.TRTSDT",
                    "orderNumber": 8,
                    "mandatory": "No",
                    "methodOID": "MT.ADLBC.TRTSDT"
                  },
                  {
                    "TYPE_NAME": "define2_1_0.ODMcomplexTypeDefinitionItemRef",
                    "itemOID": "IT.ADLBC.TRTEDT",
                    "orderNumber": 9,
                    "mandatory": "No",
                    "methodOID": "MT.ADLBC.TRTEDT"
                  },
                  {
                    "TYPE_NAME": "define2_1_0.ODMcomplexTypeDefinitionItemRef",
                    "itemOID": "IT.ADLBC.AGE",
                    "orderNumber": 10,
                    "mandatory": "No",
                    "methodOID": "MT.ADLBC.AGE"
                  },
                  {
                    "TYPE_NAME": "define2_1_0.ODMcomplexTypeDefinitionItemRef",
                    "itemOID": "IT.ADLBC.AGEGR1",
                    "orderNumber": 11,
                    "mandatory": "No",
                    "methodOID": "MT.ADLBC.AGEGR1"
                  },
                  {
                    "TYPE_NAME": "define2_1_0.ODMcomplexTypeDefinitionItemRef",
                    "itemOID": "IT.ADLBC.AGEGR1N",
                    "orderNumber": 12,
                    "mandatory": "No",
                    "methodOID": "MT.ADLBC.AGEGR1N"
                  },
                  {
                    "TYPE_NAME": "define2_1_0.ODMcomplexTypeDefinitionItemRef",
                    "itemOID": "IT.ADLBC.RACE",
                    "orderNumber": 13,
                    "mandatory": "No",
                    "methodOID": "MT.ADLBC.RACE"
                  },
                  {
                    "TYPE_NAME": "define2_1_0.ODMcomplexTypeDefinitionItemRef",
                    "itemOID": "IT.ADLBC.RACEN",
                    "orderNumber": 14,
                    "mandatory": "No",
                    "methodOID": "MT.ADLBC.RACEN"
                  },
                  {
                    "TYPE_NAME": "define2_1_0.ODMcomplexTypeDefinitionItemRef",
                    "itemOID": "IT.ADLBC.SEX",
                    "orderNumber": 15,
                    "mandatory": "No",
                    "methodOID": "MT.ADLBC.SEX"
                  },
                  {
                    "TYPE_NAME": "define2_1_0.ODMcomplexTypeDefinitionItemRef",
                    "itemOID": "IT.ADLBC.COMP24FL",
                    "orderNumber": 16,
                    "mandatory": "No",
                    "methodOID": "MT.ADLBC.COMP24FL"
                  },
                  {
                    "TYPE_NAME": "define2_1_0.ODMcomplexTypeDefinitionItemRef",
                    "itemOID": "IT.ADLBC.DSRAEFL",
                    "orderNumber": 17,
                    "mandatory": "No",
                    "methodOID": "MT.ADLBC.DSRAEFL"
                  },
                  {
                    "TYPE_NAME": "define2_1_0.ODMcomplexTypeDefinitionItemRef",
                    "itemOID": "IT.ADLBC.SAFFL",
                    "orderNumber": 18,
                    "mandatory": "No",
                    "methodOID": "MT.ADLBC.SAFFL"
                  },
                  {
                    "TYPE_NAME": "define2_1_0.ODMcomplexTypeDefinitionItemRef",
                    "itemOID": "IT.ADLBC.AVISIT",
                    "orderNumber": 19,
                    "mandatory": "No",
                    "keySequence": 3,
                    "methodOID": "MT.ADLBC.AVISIT"
                  },
                  {
                    "TYPE_NAME": "define2_1_0.ODMcomplexTypeDefinitionItemRef",
                    "itemOID": "IT.ADLBC.AVISITN",
                    "orderNumber": 20,
                    "mandatory": "No",
                    "methodOID": "MT.ADLBC.AVISITN"
                  },
                  {
                    "TYPE_NAME": "define2_1_0.ODMcomplexTypeDefinitionItemRef",
                    "itemOID": "IT.ADLBC.ADY",
                    "orderNumber": 21,
                    "mandatory": "No",
                    "methodOID": "MT.ADLBC.ADY"
                  },
                  {
                    "TYPE_NAME": "define2_1_0.ODMcomplexTypeDefinitionItemRef",
                    "itemOID": "IT.ADLBC.ADT",
                    "orderNumber": 22,
                    "mandatory": "No",
                    "methodOID": "MT.ADLBC.ADT"
                  },
                  {
                    "TYPE_NAME": "define2_1_0.ODMcomplexTypeDefinitionItemRef",
                    "itemOID": "IT.ADLBC.VISIT",
                    "orderNumber": 23,
                    "mandatory": "No",
                    "methodOID": "MT.ADLBC.VISIT"
                  },
                  {
                    "TYPE_NAME": "define2_1_0.ODMcomplexTypeDefinitionItemRef",
                    "itemOID": "IT.ADLBC.VISITNUM",
                    "orderNumber": 24,
                    "mandatory": "No",
                    "methodOID": "MT.ADLBC.VISITNUM"
                  },
                  {
                    "TYPE_NAME": "define2_1_0.ODMcomplexTypeDefinitionItemRef",
                    "itemOID": "IT.ADLBC.PARAM",
                    "orderNumber": 25,
                    "mandatory": "No",
                    "methodOID": "MT.ADLBC.PARAM"
                  },
                  {
                    "TYPE_NAME": "define2_1_0.ODMcomplexTypeDefinitionItemRef",
                    "itemOID": "IT.ADLBC.PARAMCD",
                    "orderNumber": 26,
                    "mandatory": "No",
                    "keySequence": 2,
                    "methodOID": "MT.ADLBC.PARAMCD"
                  },
                  {
                    "TYPE_NAME": "define2_1_0.ODMcomplexTypeDefinitionItemRef",
                    "itemOID": "IT.ADLBC.PARAMN",
                    "orderNumber": 27,
                    "mandatory": "No",
                    "methodOID": "MT.ADLBC.PARAMN"
                  },
                  {
                    "TYPE_NAME": "define2_1_0.ODMcomplexTypeDefinitionItemRef",
                    "itemOID": "IT.ADLBC.PARCAT1",
                    "orderNumber": 28,
                    "mandatory": "No",
                    "methodOID": "MT.ADLBC.PARCAT1"
                  },
                  {
                    "TYPE_NAME": "define2_1_0.ODMcomplexTypeDefinitionItemRef",
                    "itemOID": "IT.ADLBC.AVAL",
                    "orderNumber": 29,
                    "mandatory": "No"
                  },
                  {
                    "TYPE_NAME": "define2_1_0.ODMcomplexTypeDefinitionItemRef",
                    "itemOID": "IT.ADLBC.BASE",
                    "orderNumber": 30,
                    "mandatory": "No"
                  },
                  {
                    "TYPE_NAME": "define2_1_0.ODMcomplexTypeDefinitionItemRef",
                    "itemOID": "IT.ADLBC.CHG",
                    "orderNumber": 31,
                    "mandatory": "No"
                  },
                  {
                    "TYPE_NAME": "define2_1_0.ODMcomplexTypeDefinitionItemRef",
                    "itemOID": "IT.ADLBC.A1LO",
                    "orderNumber": 32,
                    "mandatory": "No",
                    "methodOID": "MT.ADLBC.A1LO"
                  },
                  {
                    "TYPE_NAME": "define2_1_0.ODMcomplexTypeDefinitionItemRef",
                    "itemOID": "IT.ADLBC.A1HI",
                    "orderNumber": 33,
                    "mandatory": "No",
                    "methodOID": "MT.ADLBC.A1HI"
                  },
                  {
                    "TYPE_NAME": "define2_1_0.ODMcomplexTypeDefinitionItemRef",
                    "itemOID": "IT.ADLBC.R2A1LO",
                    "orderNumber": 34,
                    "mandatory": "No",
                    "methodOID": "MT.ADLBC.R2A1LO"
                  },
                  {
                    "TYPE_NAME": "define2_1_0.ODMcomplexTypeDefinitionItemRef",
                    "itemOID": "IT.ADLBC.R2A1HI",
                    "orderNumber": 35,
                    "mandatory": "No",
                    "methodOID": "MT.ADLBC.R2A1HI"
                  },
                  {
                    "TYPE_NAME": "define2_1_0.ODMcomplexTypeDefinitionItemRef",
                    "itemOID": "IT.ADLBC.BR2A1LO",
                    "orderNumber": 36,
                    "mandatory": "No",
                    "methodOID": "MT.ADLBC.BR2A1LO"
                  },
                  {
                    "TYPE_NAME": "define2_1_0.ODMcomplexTypeDefinitionItemRef",
                    "itemOID": "IT.ADLBC.BR2A1HI",
                    "orderNumber": 37,
                    "mandatory": "No",
                    "methodOID": "MT.ADLBC.BR2A1HI"
                  },
                  {
                    "TYPE_NAME": "define2_1_0.ODMcomplexTypeDefinitionItemRef",
                    "itemOID": "IT.ADLBC.ANL01FL",
                    "orderNumber": 38,
                    "mandatory": "No"
                  },
                  {
                    "TYPE_NAME": "define2_1_0.ODMcomplexTypeDefinitionItemRef",
                    "itemOID": "IT.ADLBC.ALBTRVAL",
                    "orderNumber": 39,
                    "mandatory": "No",
                    "methodOID": "MT.ADLBC.ALBTRVAL"
                  },
                  {
                    "TYPE_NAME": "define2_1_0.ODMcomplexTypeDefinitionItemRef",
                    "itemOID": "IT.ADLBC.ANRIND",
                    "orderNumber": 40,
                    "mandatory": "No"
                  },
                  {
                    "TYPE_NAME": "define2_1_0.ODMcomplexTypeDefinitionItemRef",
                    "itemOID": "IT.ADLBC.BNRIND",
                    "orderNumber": 41,
                    "mandatory": "No"
                  },
                  {
                    "TYPE_NAME": "define2_1_0.ODMcomplexTypeDefinitionItemRef",
                    "itemOID": "IT.ADLBC.ABLFL",
                    "orderNumber": 42,
                    "mandatory": "No"
                  },
                  {
                    "TYPE_NAME": "define2_1_0.ODMcomplexTypeDefinitionItemRef",
                    "itemOID": "IT.ADLBC.AENTMTFL",
                    "orderNumber": 43,
                    "mandatory": "No",
                    "methodOID": "MT.ADLBC.AENTMTFL"
                  },
                  {
                    "TYPE_NAME": "define2_1_0.ODMcomplexTypeDefinitionItemRef",
                    "itemOID": "IT.ADLBC.LBSEQ",
                    "orderNumber": 44,
                    "mandatory": "No",
                    "keySequence": 4,
                    "methodOID": "MT.ADLBC.LBSEQ"
                  },
                  {
                    "TYPE_NAME": "define2_1_0.ODMcomplexTypeDefinitionItemRef",
                    "itemOID": "IT.ADLBC.LBNRIND",
                    "orderNumber": 45,
                    "mandatory": "No",
                    "methodOID": "MT.ADLBC.LBNRIND"
                  },
                  {
                    "TYPE_NAME": "define2_1_0.ODMcomplexTypeDefinitionItemRef",
                    "itemOID": "IT.ADLBC.LBSTRESN",
                    "orderNumber": 46,
                    "mandatory": "No",
                    "methodOID": "MT.ADLBC.LBSTRESN"
                  }
                ]
              },
              {
                "TYPE_NAME": "define2_1_0.ODMcomplexTypeDefinitionItemGroupDef",
                "oid": "IG.ADLBCPV",
                "name": "ADLBCPV",
                "repeating": "Yes",
                "isReferenceData": "No",
                "sasDatasetName": "ADLBCPV",
                "purpose": "Analysis",
                "description": {
                  "TYPE_NAME": "define2_1_0.ODMcomplexTypeDefinitionDescription",
                  "translatedText": [
                    {
                      "TYPE_NAME": "define2_1_0.ODMcomplexTypeDefinitionTranslatedText",
                      "lang": "en",
                      "value": "Analysis Dataset Lab Blood Chemistry (Previous Visit)"
                    }
                  ]
                },
                "itemRef": [
                  {
                    "TYPE_NAME": "define2_1_0.ODMcomplexTypeDefinitionItemRef",
                    "itemOID": "IT.ADLBCPV.STUDYID",
                    "orderNumber": 1,
                    "mandatory": "No",
                    "methodOID": "MT.ADLBCPV.STUDYID"
                  },
                  {
                    "TYPE_NAME": "define2_1_0.ODMcomplexTypeDefinitionItemRef",
                    "itemOID": "IT.ADLBCPV.SUBJID",
                    "orderNumber": 2,
                    "mandatory": "No",
                    "methodOID": "MT.ADLBCPV.SUBJID"
                  },
                  {
                    "TYPE_NAME": "define2_1_0.ODMcomplexTypeDefinitionItemRef",
                    "itemOID": "IT.ADLBCPV.USUBJID",
                    "orderNumber": 3,
                    "mandatory": "No",
                    "keySequence": 1,
                    "methodOID": "MT.ADLBCPV.USUBJID"
                  },
                  {
                    "TYPE_NAME": "define2_1_0.ODMcomplexTypeDefinitionItemRef",
                    "itemOID": "IT.ADLBCPV.TRTP",
                    "orderNumber": 4,
                    "mandatory": "No",
                    "methodOID": "MT.ADLBCPV.TRTP"
                  },
                  {
                    "TYPE_NAME": "define2_1_0.ODMcomplexTypeDefinitionItemRef",
                    "itemOID": "IT.ADLBCPV.TRTPN",
                    "orderNumber": 5,
                    "mandatory": "No",
                    "methodOID": "MT.ADLBCPV.TRTPN"
                  },
                  {
                    "TYPE_NAME": "define2_1_0.ODMcomplexTypeDefinitionItemRef",
                    "itemOID": "IT.ADLBCPV.TRTA",
                    "orderNumber": 6,
                    "mandatory": "No",
                    "methodOID": "MT.ADLBCPV.TRTA"
                  },
                  {
                    "TYPE_NAME": "define2_1_0.ODMcomplexTypeDefinitionItemRef",
                    "itemOID": "IT.ADLBCPV.TRTAN",
                    "orderNumber": 7,
                    "mandatory": "No",
                    "methodOID": "MT.ADLBCPV.TRTAN"
                  },
                  {
                    "TYPE_NAME": "define2_1_0.ODMcomplexTypeDefinitionItemRef",
                    "itemOID": "IT.ADLBCPV.TRTSDT",
                    "orderNumber": 8,
                    "mandatory": "No",
                    "methodOID": "MT.ADLBCPV.TRTSDT"
                  },
                  {
                    "TYPE_NAME": "define2_1_0.ODMcomplexTypeDefinitionItemRef",
                    "itemOID": "IT.ADLBCPV.TRTEDT",
                    "orderNumber": 9,
                    "mandatory": "No",
                    "methodOID": "MT.ADLBCPV.TRTEDT"
                  },
                  {
                    "TYPE_NAME": "define2_1_0.ODMcomplexTypeDefinitionItemRef",
                    "itemOID": "IT.ADLBCPV.AGE",
                    "orderNumber": 10,
                    "mandatory": "No",
                    "methodOID": "MT.ADLBCPV.AGE"
                  },
                  {
                    "TYPE_NAME": "define2_1_0.ODMcomplexTypeDefinitionItemRef",
                    "itemOID": "IT.ADLBCPV.AGEGR1",
                    "orderNumber": 11,
                    "mandatory": "No",
                    "methodOID": "MT.ADLBCPV.AGEGR1"
                  },
                  {
                    "TYPE_NAME": "define2_1_0.ODMcomplexTypeDefinitionItemRef",
                    "itemOID": "IT.ADLBCPV.AGEGR1N",
                    "orderNumber": 12,
                    "mandatory": "No",
                    "methodOID": "MT.ADLBCPV.AGEGR1N"
                  },
                  {
                    "TYPE_NAME": "define2_1_0.ODMcomplexTypeDefinitionItemRef",
                    "itemOID": "IT.ADLBCPV.RACE",
                    "orderNumber": 13,
                    "mandatory": "No",
                    "methodOID": "MT.ADLBCPV.RACE"
                  },
                  {
                    "TYPE_NAME": "define2_1_0.ODMcomplexTypeDefinitionItemRef",
                    "itemOID": "IT.ADLBCPV.RACEN",
                    "orderNumber": 14,
                    "mandatory": "No",
                    "methodOID": "MT.ADLBCPV.RACEN"
                  },
                  {
                    "TYPE_NAME": "define2_1_0.ODMcomplexTypeDefinitionItemRef",
                    "itemOID": "IT.ADLBCPV.SEX",
                    "orderNumber": 15,
                    "mandatory": "No",
                    "methodOID": "MT.ADLBCPV.SEX"
                  },
                  {
                    "TYPE_NAME": "define2_1_0.ODMcomplexTypeDefinitionItemRef",
                    "itemOID": "IT.ADLBCPV.COMP24FL",
                    "orderNumber": 16,
                    "mandatory": "No",
                    "methodOID": "MT.ADLBCPV.COMP24FL"
                  },
                  {
                    "TYPE_NAME": "define2_1_0.ODMcomplexTypeDefinitionItemRef",
                    "itemOID": "IT.ADLBCPV.DSRAEFL",
                    "orderNumber": 17,
                    "mandatory": "No",
                    "methodOID": "MT.ADLBCPV.DSRAEFL"
                  },
                  {
                    "TYPE_NAME": "define2_1_0.ODMcomplexTypeDefinitionItemRef",
                    "itemOID": "IT.ADLBCPV.SAFFL",
                    "orderNumber": 18,
                    "mandatory": "No",
                    "methodOID": "MT.ADLBCPV.SAFFL"
                  },
                  {
                    "TYPE_NAME": "define2_1_0.ODMcomplexTypeDefinitionItemRef",
                    "itemOID": "IT.ADLBCPV.AVISIT",
                    "orderNumber": 19,
                    "mandatory": "No",
                    "keySequence": 3,
                    "methodOID": "MT.ADLBCPV.AVISIT"
                  },
                  {
                    "TYPE_NAME": "define2_1_0.ODMcomplexTypeDefinitionItemRef",
                    "itemOID": "IT.ADLBCPV.AVISITN",
                    "orderNumber": 20,
                    "mandatory": "No",
                    "methodOID": "MT.ADLBCPV.AVISITN"
                  },
                  {
                    "TYPE_NAME": "define2_1_0.ODMcomplexTypeDefinitionItemRef",
                    "itemOID": "IT.ADLBCPV.ADY",
                    "orderNumber": 21,
                    "mandatory": "No",
                    "methodOID": "MT.ADLBCPV.ADY"
                  },
                  {
                    "TYPE_NAME": "define2_1_0.ODMcomplexTypeDefinitionItemRef",
                    "itemOID": "IT.ADLBCPV.ADT",
                    "orderNumber": 22,
                    "mandatory": "No",
                    "methodOID": "MT.ADLBCPV.ADT"
                  },
                  {
                    "TYPE_NAME": "define2_1_0.ODMcomplexTypeDefinitionItemRef",
                    "itemOID": "IT.ADLBCPV.VISIT",
                    "orderNumber": 23,
                    "mandatory": "No",
                    "methodOID": "MT.ADLBCPV.VISIT"
                  },
                  {
                    "TYPE_NAME": "define2_1_0.ODMcomplexTypeDefinitionItemRef",
                    "itemOID": "IT.ADLBCPV.VISITNUM",
                    "orderNumber": 24,
                    "mandatory": "No",
                    "methodOID": "MT.ADLBCPV.VISITNUM"
                  },
                  {
                    "TYPE_NAME": "define2_1_0.ODMcomplexTypeDefinitionItemRef",
                    "itemOID": "IT.ADLBCPV.PARAM",
                    "orderNumber": 25,
                    "mandatory": "No",
                    "methodOID": "MT.ADLBCPV.PARAM"
                  },
                  {
                    "TYPE_NAME": "define2_1_0.ODMcomplexTypeDefinitionItemRef",
                    "itemOID": "IT.ADLBCPV.PARAMCD",
                    "orderNumber": 26,
                    "mandatory": "No",
                    "keySequence": 2,
                    "methodOID": "MT.ADLBCPV.PARAMCD"
                  },
                  {
                    "TYPE_NAME": "define2_1_0.ODMcomplexTypeDefinitionItemRef",
                    "itemOID": "IT.ADLBCPV.PARAMN",
                    "orderNumber": 27,
                    "mandatory": "No",
                    "methodOID": "MT.ADLBCPV.PARAMN"
                  },
                  {
                    "TYPE_NAME": "define2_1_0.ODMcomplexTypeDefinitionItemRef",
                    "itemOID": "IT.ADLBCPV.PARCAT1",
                    "orderNumber": 28,
                    "mandatory": "No",
                    "methodOID": "MT.ADLBCPV.PARCAT1"
                  },
                  {
                    "TYPE_NAME": "define2_1_0.ODMcomplexTypeDefinitionItemRef",
                    "itemOID": "IT.ADLBCPV.AVAL",
                    "orderNumber": 29,
                    "mandatory": "No"
                  },
                  {
                    "TYPE_NAME": "define2_1_0.ODMcomplexTypeDefinitionItemRef",
                    "itemOID": "IT.ADLBCPV.BASE",
                    "orderNumber": 30,
                    "mandatory": "No"
                  },
                  {
                    "TYPE_NAME": "define2_1_0.ODMcomplexTypeDefinitionItemRef",
                    "itemOID": "IT.ADLBCPV.CHG",
                    "orderNumber": 31,
                    "mandatory": "No"
                  },
                  {
                    "TYPE_NAME": "define2_1_0.ODMcomplexTypeDefinitionItemRef",
                    "itemOID": "IT.ADLBCPV.A1LO",
                    "orderNumber": 32,
                    "mandatory": "No",
                    "methodOID": "MT.ADLBCPV.A1LO"
                  },
                  {
                    "TYPE_NAME": "define2_1_0.ODMcomplexTypeDefinitionItemRef",
                    "itemOID": "IT.ADLBCPV.A1HI",
                    "orderNumber": 33,
                    "mandatory": "No",
                    "methodOID": "MT.ADLBCPV.A1HI"
                  },
                  {
                    "TYPE_NAME": "define2_1_0.ODMcomplexTypeDefinitionItemRef",
                    "itemOID": "IT.ADLBCPV.R2A1LO",
                    "orderNumber": 34,
                    "mandatory": "No",
                    "methodOID": "MT.ADLBCPV.R2A1LO"
                  },
                  {
                    "TYPE_NAME": "define2_1_0.ODMcomplexTypeDefinitionItemRef",
                    "itemOID": "IT.ADLBCPV.R2A1HI",
                    "orderNumber": 35,
                    "mandatory": "No",
                    "methodOID": "MT.ADLBCPV.R2A1HI"
                  },
                  {
                    "TYPE_NAME": "define2_1_0.ODMcomplexTypeDefinitionItemRef",
                    "itemOID": "IT.ADLBCPV.BR2A1LO",
                    "orderNumber": 36,
                    "mandatory": "No",
                    "methodOID": "MT.ADLBCPV.BR2A1LO"
                  },
                  {
                    "TYPE_NAME": "define2_1_0.ODMcomplexTypeDefinitionItemRef",
                    "itemOID": "IT.ADLBCPV.BR2A1HI",
                    "orderNumber": 37,
                    "mandatory": "No",
                    "methodOID": "MT.ADLBCPV.BR2A1HI"
                  },
                  {
                    "TYPE_NAME": "define2_1_0.ODMcomplexTypeDefinitionItemRef",
                    "itemOID": "IT.ADLBCPV.ANL01FL",
                    "orderNumber": 38,
                    "mandatory": "No"
                  },
                  {
                    "TYPE_NAME": "define2_1_0.ODMcomplexTypeDefinitionItemRef",
                    "itemOID": "IT.ADLBCPV.ALBTRVAL",
                    "orderNumber": 39,
                    "mandatory": "No",
                    "methodOID": "MT.ADLBCPV.ALBTRVAL"
                  },
                  {
                    "TYPE_NAME": "define2_1_0.ODMcomplexTypeDefinitionItemRef",
                    "itemOID": "IT.ADLBCPV.ANRIND",
                    "orderNumber": 40,
                    "mandatory": "No"
                  },
                  {
                    "TYPE_NAME": "define2_1_0.ODMcomplexTypeDefinitionItemRef",
                    "itemOID": "IT.ADLBCPV.BNRIND",
                    "orderNumber": 41,
                    "mandatory": "No"
                  },
                  {
                    "TYPE_NAME": "define2_1_0.ODMcomplexTypeDefinitionItemRef",
                    "itemOID": "IT.ADLBCPV.ABLFL",
                    "orderNumber": 42,
                    "mandatory": "No"
                  },
                  {
                    "TYPE_NAME": "define2_1_0.ODMcomplexTypeDefinitionItemRef",
                    "itemOID": "IT.ADLBCPV.AENTMTFL",
                    "orderNumber": 43,
                    "mandatory": "No",
                    "methodOID": "MT.ADLBCPV.AENTMTFL"
                  },
                  {
                    "TYPE_NAME": "define2_1_0.ODMcomplexTypeDefinitionItemRef",
                    "itemOID": "IT.ADLBCPV.LBSEQ",
                    "orderNumber": 44,
                    "mandatory": "No",
                    "keySequence": 4,
                    "methodOID": "MT.ADLBCPV.LBSEQ"
                  },
                  {
                    "TYPE_NAME": "define2_1_0.ODMcomplexTypeDefinitionItemRef",
                    "itemOID": "IT.ADLBCPV.LBNRIND",
                    "orderNumber": 45,
                    "mandatory": "No",
                    "methodOID": "MT.ADLBCPV.LBNRIND"
                  },
                  {
                    "TYPE_NAME": "define2_1_0.ODMcomplexTypeDefinitionItemRef",
                    "itemOID": "IT.ADLBCPV.LBSTRESN",
                    "orderNumber": 46,
                    "mandatory": "No",
                    "methodOID": "MT.ADLBCPV.LBSTRESN"
                  }
                ]
              },
              {
                "TYPE_NAME": "define2_1_0.ODMcomplexTypeDefinitionItemGroupDef",
                "oid": "IG.ADLBH",
                "name": "ADLBH",
                "repeating": "Yes",
                "isReferenceData": "No",
                "sasDatasetName": "ADLBH",
                "purpose": "Analysis",
                "description": {
                  "TYPE_NAME": "define2_1_0.ODMcomplexTypeDefinitionDescription",
                  "translatedText": [
                    {
                      "TYPE_NAME": "define2_1_0.ODMcomplexTypeDefinitionTranslatedText",
                      "lang": "en",
                      "value": "Analysis Dataset Lab Hematology"
                    }
                  ]
                },
                "itemRef": [
                  {
                    "TYPE_NAME": "define2_1_0.ODMcomplexTypeDefinitionItemRef",
                    "itemOID": "IT.ADLBH.STUDYID",
                    "orderNumber": 1,
                    "mandatory": "No",
                    "methodOID": "MT.ADLBH.STUDYID"
                  },
                  {
                    "TYPE_NAME": "define2_1_0.ODMcomplexTypeDefinitionItemRef",
                    "itemOID": "IT.ADLBH.SUBJID",
                    "orderNumber": 2,
                    "mandatory": "No",
                    "methodOID": "MT.ADLBH.SUBJID"
                  },
                  {
                    "TYPE_NAME": "define2_1_0.ODMcomplexTypeDefinitionItemRef",
                    "itemOID": "IT.ADLBH.USUBJID",
                    "orderNumber": 3,
                    "mandatory": "No",
                    "keySequence": 1,
                    "methodOID": "MT.ADLBH.USUBJID"
                  },
                  {
                    "TYPE_NAME": "define2_1_0.ODMcomplexTypeDefinitionItemRef",
                    "itemOID": "IT.ADLBH.TRTP",
                    "orderNumber": 4,
                    "mandatory": "No",
                    "methodOID": "MT.ADLBH.TRTP"
                  },
                  {
                    "TYPE_NAME": "define2_1_0.ODMcomplexTypeDefinitionItemRef",
                    "itemOID": "IT.ADLBH.TRTPN",
                    "orderNumber": 5,
                    "mandatory": "No",
                    "methodOID": "MT.ADLBH.TRTPN"
                  },
                  {
                    "TYPE_NAME": "define2_1_0.ODMcomplexTypeDefinitionItemRef",
                    "itemOID": "IT.ADLBH.TRTA",
                    "orderNumber": 6,
                    "mandatory": "No",
                    "methodOID": "MT.ADLBH.TRTA"
                  },
                  {
                    "TYPE_NAME": "define2_1_0.ODMcomplexTypeDefinitionItemRef",
                    "itemOID": "IT.ADLBH.TRTAN",
                    "orderNumber": 7,
                    "mandatory": "No",
                    "methodOID": "MT.ADLBH.TRTAN"
                  },
                  {
                    "TYPE_NAME": "define2_1_0.ODMcomplexTypeDefinitionItemRef",
                    "itemOID": "IT.ADLBH.TRTSDT",
                    "orderNumber": 8,
                    "mandatory": "No",
                    "methodOID": "MT.ADLBH.TRTSDT"
                  },
                  {
                    "TYPE_NAME": "define2_1_0.ODMcomplexTypeDefinitionItemRef",
                    "itemOID": "IT.ADLBH.TRTEDT",
                    "orderNumber": 9,
                    "mandatory": "No",
                    "methodOID": "MT.ADLBH.TRTEDT"
                  },
                  {
                    "TYPE_NAME": "define2_1_0.ODMcomplexTypeDefinitionItemRef",
                    "itemOID": "IT.ADLBH.AGE",
                    "orderNumber": 10,
                    "mandatory": "No",
                    "methodOID": "MT.ADLBH.AGE"
                  },
                  {
                    "TYPE_NAME": "define2_1_0.ODMcomplexTypeDefinitionItemRef",
                    "itemOID": "IT.ADLBH.AGEGR1",
                    "orderNumber": 11,
                    "mandatory": "No",
                    "methodOID": "MT.ADLBH.AGEGR1"
                  },
                  {
                    "TYPE_NAME": "define2_1_0.ODMcomplexTypeDefinitionItemRef",
                    "itemOID": "IT.ADLBH.AGEGR1N",
                    "orderNumber": 12,
                    "mandatory": "No",
                    "methodOID": "MT.ADLBH.AGEGR1N"
                  },
                  {
                    "TYPE_NAME": "define2_1_0.ODMcomplexTypeDefinitionItemRef",
                    "itemOID": "IT.ADLBH.RACE",
                    "orderNumber": 13,
                    "mandatory": "No",
                    "methodOID": "MT.ADLBH.RACE"
                  },
                  {
                    "TYPE_NAME": "define2_1_0.ODMcomplexTypeDefinitionItemRef",
                    "itemOID": "IT.ADLBH.RACEN",
                    "orderNumber": 14,
                    "mandatory": "No",
                    "methodOID": "MT.ADLBH.RACEN"
                  },
                  {
                    "TYPE_NAME": "define2_1_0.ODMcomplexTypeDefinitionItemRef",
                    "itemOID": "IT.ADLBH.SEX",
                    "orderNumber": 15,
                    "mandatory": "No",
                    "methodOID": "MT.ADLBH.SEX"
                  },
                  {
                    "TYPE_NAME": "define2_1_0.ODMcomplexTypeDefinitionItemRef",
                    "itemOID": "IT.ADLBH.COMP24FL",
                    "orderNumber": 16,
                    "mandatory": "No",
                    "methodOID": "MT.ADLBH.COMP24FL"
                  },
                  {
                    "TYPE_NAME": "define2_1_0.ODMcomplexTypeDefinitionItemRef",
                    "itemOID": "IT.ADLBH.DSRAEFL",
                    "orderNumber": 17,
                    "mandatory": "No",
                    "methodOID": "MT.ADLBH.DSRAEFL"
                  },
                  {
                    "TYPE_NAME": "define2_1_0.ODMcomplexTypeDefinitionItemRef",
                    "itemOID": "IT.ADLBH.SAFFL",
                    "orderNumber": 18,
                    "mandatory": "No",
                    "methodOID": "MT.ADLBH.SAFFL"
                  },
                  {
                    "TYPE_NAME": "define2_1_0.ODMcomplexTypeDefinitionItemRef",
                    "itemOID": "IT.ADLBH.AVISIT",
                    "orderNumber": 19,
                    "mandatory": "No",
                    "keySequence": 3,
                    "methodOID": "MT.ADLBH.AVISIT"
                  },
                  {
                    "TYPE_NAME": "define2_1_0.ODMcomplexTypeDefinitionItemRef",
                    "itemOID": "IT.ADLBH.AVISITN",
                    "orderNumber": 20,
                    "mandatory": "No",
                    "methodOID": "MT.ADLBH.AVISITN"
                  },
                  {
                    "TYPE_NAME": "define2_1_0.ODMcomplexTypeDefinitionItemRef",
                    "itemOID": "IT.ADLBH.ADY",
                    "orderNumber": 21,
                    "mandatory": "No",
                    "methodOID": "MT.ADLBH.ADY"
                  },
                  {
                    "TYPE_NAME": "define2_1_0.ODMcomplexTypeDefinitionItemRef",
                    "itemOID": "IT.ADLBH.ADT",
                    "orderNumber": 22,
                    "mandatory": "No",
                    "methodOID": "MT.ADLBH.ADT"
                  },
                  {
                    "TYPE_NAME": "define2_1_0.ODMcomplexTypeDefinitionItemRef",
                    "itemOID": "IT.ADLBH.VISIT",
                    "orderNumber": 23,
                    "mandatory": "No",
                    "methodOID": "MT.ADLBH.VISIT"
                  },
                  {
                    "TYPE_NAME": "define2_1_0.ODMcomplexTypeDefinitionItemRef",
                    "itemOID": "IT.ADLBH.VISITNUM",
                    "orderNumber": 24,
                    "mandatory": "No",
                    "methodOID": "MT.ADLBH.VISITNUM"
                  },
                  {
                    "TYPE_NAME": "define2_1_0.ODMcomplexTypeDefinitionItemRef",
                    "itemOID": "IT.ADLBH.PARAM",
                    "orderNumber": 25,
                    "mandatory": "No",
                    "methodOID": "MT.ADLBH.PARAM"
                  },
                  {
                    "TYPE_NAME": "define2_1_0.ODMcomplexTypeDefinitionItemRef",
                    "itemOID": "IT.ADLBH.PARAMCD",
                    "orderNumber": 26,
                    "mandatory": "No",
                    "keySequence": 2,
                    "methodOID": "MT.ADLBH.PARAMCD"
                  },
                  {
                    "TYPE_NAME": "define2_1_0.ODMcomplexTypeDefinitionItemRef",
                    "itemOID": "IT.ADLBH.PARAMN",
                    "orderNumber": 27,
                    "mandatory": "No",
                    "methodOID": "MT.ADLBH.PARAMN"
                  },
                  {
                    "TYPE_NAME": "define2_1_0.ODMcomplexTypeDefinitionItemRef",
                    "itemOID": "IT.ADLBH.PARCAT1",
                    "orderNumber": 28,
                    "mandatory": "No",
                    "methodOID": "MT.ADLBH.PARCAT1"
                  },
                  {
                    "TYPE_NAME": "define2_1_0.ODMcomplexTypeDefinitionItemRef",
                    "itemOID": "IT.ADLBH.AVAL",
                    "orderNumber": 29,
                    "mandatory": "No"
                  },
                  {
                    "TYPE_NAME": "define2_1_0.ODMcomplexTypeDefinitionItemRef",
                    "itemOID": "IT.ADLBH.BASE",
                    "orderNumber": 30,
                    "mandatory": "No"
                  },
                  {
                    "TYPE_NAME": "define2_1_0.ODMcomplexTypeDefinitionItemRef",
                    "itemOID": "IT.ADLBH.CHG",
                    "orderNumber": 31,
                    "mandatory": "No"
                  },
                  {
                    "TYPE_NAME": "define2_1_0.ODMcomplexTypeDefinitionItemRef",
                    "itemOID": "IT.ADLBH.A1LO",
                    "orderNumber": 32,
                    "mandatory": "No"
                  },
                  {
                    "TYPE_NAME": "define2_1_0.ODMcomplexTypeDefinitionItemRef",
                    "itemOID": "IT.ADLBH.A1HI",
                    "orderNumber": 33,
                    "mandatory": "No",
                    "methodOID": "MT.ADLBH.A1HI"
                  },
                  {
                    "TYPE_NAME": "define2_1_0.ODMcomplexTypeDefinitionItemRef",
                    "itemOID": "IT.ADLBH.R2A1LO",
                    "orderNumber": 34,
                    "mandatory": "No",
                    "methodOID": "MT.ADLBH.R2A1LO"
                  },
                  {
                    "TYPE_NAME": "define2_1_0.ODMcomplexTypeDefinitionItemRef",
                    "itemOID": "IT.ADLBH.R2A1HI",
                    "orderNumber": 35,
                    "mandatory": "No",
                    "methodOID": "MT.ADLBH.R2A1HI"
                  },
                  {
                    "TYPE_NAME": "define2_1_0.ODMcomplexTypeDefinitionItemRef",
                    "itemOID": "IT.ADLBH.BR2A1LO",
                    "orderNumber": 36,
                    "mandatory": "No",
                    "methodOID": "MT.ADLBH.BR2A1LO"
                  },
                  {
                    "TYPE_NAME": "define2_1_0.ODMcomplexTypeDefinitionItemRef",
                    "itemOID": "IT.ADLBH.BR2A1HI",
                    "orderNumber": 37,
                    "mandatory": "No",
                    "methodOID": "MT.ADLBH.BR2A1HI"
                  },
                  {
                    "TYPE_NAME": "define2_1_0.ODMcomplexTypeDefinitionItemRef",
                    "itemOID": "IT.ADLBH.ANL01FL",
                    "orderNumber": 38,
                    "mandatory": "No"
                  },
                  {
                    "TYPE_NAME": "define2_1_0.ODMcomplexTypeDefinitionItemRef",
                    "itemOID": "IT.ADLBH.ALBTRVAL",
                    "orderNumber": 39,
                    "mandatory": "No",
                    "methodOID": "MT.ADLBH.ALBTRVAL"
                  },
                  {
                    "TYPE_NAME": "define2_1_0.ODMcomplexTypeDefinitionItemRef",
                    "itemOID": "IT.ADLBH.ANRIND",
                    "orderNumber": 40,
                    "mandatory": "No"
                  },
                  {
                    "TYPE_NAME": "define2_1_0.ODMcomplexTypeDefinitionItemRef",
                    "itemOID": "IT.ADLBH.BNRIND",
                    "orderNumber": 41,
                    "mandatory": "No"
                  },
                  {
                    "TYPE_NAME": "define2_1_0.ODMcomplexTypeDefinitionItemRef",
                    "itemOID": "IT.ADLBH.ABLFL",
                    "orderNumber": 42,
                    "mandatory": "No"
                  },
                  {
                    "TYPE_NAME": "define2_1_0.ODMcomplexTypeDefinitionItemRef",
                    "itemOID": "IT.ADLBH.AENTMTFL",
                    "orderNumber": 43,
                    "mandatory": "No",
                    "methodOID": "MT.ADLBH.AENTMTFL"
                  },
                  {
                    "TYPE_NAME": "define2_1_0.ODMcomplexTypeDefinitionItemRef",
                    "itemOID": "IT.ADLBH.LBSEQ",
                    "orderNumber": 44,
                    "mandatory": "No",
                    "keySequence": 4,
                    "methodOID": "MT.ADLBH.LBSEQ"
                  },
                  {
                    "TYPE_NAME": "define2_1_0.ODMcomplexTypeDefinitionItemRef",
                    "itemOID": "IT.ADLBH.LBNRIND",
                    "orderNumber": 45,
                    "mandatory": "No",
                    "methodOID": "MT.ADLBH.LBNRIND"
                  },
                  {
                    "TYPE_NAME": "define2_1_0.ODMcomplexTypeDefinitionItemRef",
                    "itemOID": "IT.ADLBH.LBSTRESN",
                    "orderNumber": 46,
                    "mandatory": "No",
                    "methodOID": "MT.ADLBH.LBSTRESN"
                  }
                ]
              },
              {
                "TYPE_NAME": "define2_1_0.ODMcomplexTypeDefinitionItemGroupDef",
                "oid": "IG.ADLBHPV",
                "name": "ADLBHPV",
                "repeating": "Yes",
                "isReferenceData": "No",
                "sasDatasetName": "ADLBHPV",
                "purpose": "Analysis",
                "description": {
                  "TYPE_NAME": "define2_1_0.ODMcomplexTypeDefinitionDescription",
                  "translatedText": [
                    {
                      "TYPE_NAME": "define2_1_0.ODMcomplexTypeDefinitionTranslatedText",
                      "lang": "en",
                      "value": "Analysis Dataset Lab Hematology (Previous Visit)"
                    }
                  ]
                },
                "itemRef": [
                  {
                    "TYPE_NAME": "define2_1_0.ODMcomplexTypeDefinitionItemRef",
                    "itemOID": "IT.ADLBHPV.STUDYID",
                    "orderNumber": 1,
                    "mandatory": "No",
                    "methodOID": "MT.ADLBHPV.STUDYID"
                  },
                  {
                    "TYPE_NAME": "define2_1_0.ODMcomplexTypeDefinitionItemRef",
                    "itemOID": "IT.ADLBHPV.SUBJID",
                    "orderNumber": 2,
                    "mandatory": "No",
                    "methodOID": "MT.ADLBHPV.SUBJID"
                  },
                  {
                    "TYPE_NAME": "define2_1_0.ODMcomplexTypeDefinitionItemRef",
                    "itemOID": "IT.ADLBHPV.USUBJID",
                    "orderNumber": 3,
                    "mandatory": "No",
                    "keySequence": 1,
                    "methodOID": "MT.ADLBHPV.USUBJID"
                  },
                  {
                    "TYPE_NAME": "define2_1_0.ODMcomplexTypeDefinitionItemRef",
                    "itemOID": "IT.ADLBHPV.TRTP",
                    "orderNumber": 4,
                    "mandatory": "No",
                    "methodOID": "MT.ADLBHPV.TRTP"
                  },
                  {
                    "TYPE_NAME": "define2_1_0.ODMcomplexTypeDefinitionItemRef",
                    "itemOID": "IT.ADLBHPV.TRTPN",
                    "orderNumber": 5,
                    "mandatory": "No",
                    "methodOID": "MT.ADLBHPV.TRTPN"
                  },
                  {
                    "TYPE_NAME": "define2_1_0.ODMcomplexTypeDefinitionItemRef",
                    "itemOID": "IT.ADLBHPV.TRTA",
                    "orderNumber": 6,
                    "mandatory": "No",
                    "methodOID": "MT.ADLBHPV.TRTA"
                  },
                  {
                    "TYPE_NAME": "define2_1_0.ODMcomplexTypeDefinitionItemRef",
                    "itemOID": "IT.ADLBHPV.TRTAN",
                    "orderNumber": 7,
                    "mandatory": "No",
                    "methodOID": "MT.ADLBHPV.TRTAN"
                  },
                  {
                    "TYPE_NAME": "define2_1_0.ODMcomplexTypeDefinitionItemRef",
                    "itemOID": "IT.ADLBHPV.TRTSDT",
                    "orderNumber": 8,
                    "mandatory": "No",
                    "methodOID": "MT.ADLBHPV.TRTSDT"
                  },
                  {
                    "TYPE_NAME": "define2_1_0.ODMcomplexTypeDefinitionItemRef",
                    "itemOID": "IT.ADLBHPV.TRTEDT",
                    "orderNumber": 9,
                    "mandatory": "No",
                    "methodOID": "MT.ADLBHPV.TRTEDT"
                  },
                  {
                    "TYPE_NAME": "define2_1_0.ODMcomplexTypeDefinitionItemRef",
                    "itemOID": "IT.ADLBHPV.AGE",
                    "orderNumber": 10,
                    "mandatory": "No",
                    "methodOID": "MT.ADLBHPV.AGE"
                  },
                  {
                    "TYPE_NAME": "define2_1_0.ODMcomplexTypeDefinitionItemRef",
                    "itemOID": "IT.ADLBHPV.AGEGR1",
                    "orderNumber": 11,
                    "mandatory": "No",
                    "methodOID": "MT.ADLBHPV.AGEGR1"
                  },
                  {
                    "TYPE_NAME": "define2_1_0.ODMcomplexTypeDefinitionItemRef",
                    "itemOID": "IT.ADLBHPV.AGEGR1N",
                    "orderNumber": 12,
                    "mandatory": "No",
                    "methodOID": "MT.ADLBHPV.AGEGR1N"
                  },
                  {
                    "TYPE_NAME": "define2_1_0.ODMcomplexTypeDefinitionItemRef",
                    "itemOID": "IT.ADLBHPV.RACE",
                    "orderNumber": 13,
                    "mandatory": "No",
                    "methodOID": "MT.ADLBHPV.RACE"
                  },
                  {
                    "TYPE_NAME": "define2_1_0.ODMcomplexTypeDefinitionItemRef",
                    "itemOID": "IT.ADLBHPV.RACEN",
                    "orderNumber": 14,
                    "mandatory": "No",
                    "methodOID": "MT.ADLBHPV.RACEN"
                  },
                  {
                    "TYPE_NAME": "define2_1_0.ODMcomplexTypeDefinitionItemRef",
                    "itemOID": "IT.ADLBHPV.SEX",
                    "orderNumber": 15,
                    "mandatory": "No",
                    "methodOID": "MT.ADLBHPV.SEX"
                  },
                  {
                    "TYPE_NAME": "define2_1_0.ODMcomplexTypeDefinitionItemRef",
                    "itemOID": "IT.ADLBHPV.COMP24FL",
                    "orderNumber": 16,
                    "mandatory": "No",
                    "methodOID": "MT.ADLBHPV.COMP24FL"
                  },
                  {
                    "TYPE_NAME": "define2_1_0.ODMcomplexTypeDefinitionItemRef",
                    "itemOID": "IT.ADLBHPV.DSRAEFL",
                    "orderNumber": 17,
                    "mandatory": "No",
                    "methodOID": "MT.ADLBHPV.DSRAEFL"
                  },
                  {
                    "TYPE_NAME": "define2_1_0.ODMcomplexTypeDefinitionItemRef",
                    "itemOID": "IT.ADLBHPV.SAFFL",
                    "orderNumber": 18,
                    "mandatory": "No",
                    "methodOID": "MT.ADLBHPV.SAFFL"
                  },
                  {
                    "TYPE_NAME": "define2_1_0.ODMcomplexTypeDefinitionItemRef",
                    "itemOID": "IT.ADLBHPV.AVISIT",
                    "orderNumber": 19,
                    "mandatory": "No",
                    "keySequence": 3,
                    "methodOID": "MT.ADLBHPV.AVISIT"
                  },
                  {
                    "TYPE_NAME": "define2_1_0.ODMcomplexTypeDefinitionItemRef",
                    "itemOID": "IT.ADLBHPV.AVISITN",
                    "orderNumber": 20,
                    "mandatory": "No",
                    "methodOID": "MT.ADLBHPV.AVISITN"
                  },
                  {
                    "TYPE_NAME": "define2_1_0.ODMcomplexTypeDefinitionItemRef",
                    "itemOID": "IT.ADLBHPV.ADY",
                    "orderNumber": 21,
                    "mandatory": "No",
                    "methodOID": "MT.ADLBHPV.ADY"
                  },
                  {
                    "TYPE_NAME": "define2_1_0.ODMcomplexTypeDefinitionItemRef",
                    "itemOID": "IT.ADLBHPV.ADT",
                    "orderNumber": 22,
                    "mandatory": "No",
                    "methodOID": "MT.ADLBHPV.ADT"
                  },
                  {
                    "TYPE_NAME": "define2_1_0.ODMcomplexTypeDefinitionItemRef",
                    "itemOID": "IT.ADLBHPV.VISIT",
                    "orderNumber": 23,
                    "mandatory": "No",
                    "methodOID": "MT.ADLBHPV.VISIT"
                  },
                  {
                    "TYPE_NAME": "define2_1_0.ODMcomplexTypeDefinitionItemRef",
                    "itemOID": "IT.ADLBHPV.VISITNUM",
                    "orderNumber": 24,
                    "mandatory": "No",
                    "methodOID": "MT.ADLBHPV.VISITNUM"
                  },
                  {
                    "TYPE_NAME": "define2_1_0.ODMcomplexTypeDefinitionItemRef",
                    "itemOID": "IT.ADLBHPV.PARAM",
                    "orderNumber": 25,
                    "mandatory": "No",
                    "methodOID": "MT.ADLBHPV.PARAM"
                  },
                  {
                    "TYPE_NAME": "define2_1_0.ODMcomplexTypeDefinitionItemRef",
                    "itemOID": "IT.ADLBHPV.PARAMCD",
                    "orderNumber": 26,
                    "mandatory": "No",
                    "keySequence": 2,
                    "methodOID": "MT.ADLBHPV.PARAMCD"
                  },
                  {
                    "TYPE_NAME": "define2_1_0.ODMcomplexTypeDefinitionItemRef",
                    "itemOID": "IT.ADLBHPV.PARAMN",
                    "orderNumber": 27,
                    "mandatory": "No",
                    "methodOID": "MT.ADLBHPV.PARAMN"
                  },
                  {
                    "TYPE_NAME": "define2_1_0.ODMcomplexTypeDefinitionItemRef",
                    "itemOID": "IT.ADLBHPV.PARCAT1",
                    "orderNumber": 28,
                    "mandatory": "No",
                    "methodOID": "MT.ADLBHPV.PARCAT1"
                  },
                  {
                    "TYPE_NAME": "define2_1_0.ODMcomplexTypeDefinitionItemRef",
                    "itemOID": "IT.ADLBHPV.AVAL",
                    "orderNumber": 29,
                    "mandatory": "No"
                  },
                  {
                    "TYPE_NAME": "define2_1_0.ODMcomplexTypeDefinitionItemRef",
                    "itemOID": "IT.ADLBHPV.BASE",
                    "orderNumber": 30,
                    "mandatory": "No"
                  },
                  {
                    "TYPE_NAME": "define2_1_0.ODMcomplexTypeDefinitionItemRef",
                    "itemOID": "IT.ADLBHPV.CHG",
                    "orderNumber": 31,
                    "mandatory": "No"
                  },
                  {
                    "TYPE_NAME": "define2_1_0.ODMcomplexTypeDefinitionItemRef",
                    "itemOID": "IT.ADLBHPV.A1LO",
                    "orderNumber": 32,
                    "mandatory": "No"
                  },
                  {
                    "TYPE_NAME": "define2_1_0.ODMcomplexTypeDefinitionItemRef",
                    "itemOID": "IT.ADLBHPV.A1HI",
                    "orderNumber": 33,
                    "mandatory": "No",
                    "methodOID": "MT.ADLBHPV.A1HI"
                  },
                  {
                    "TYPE_NAME": "define2_1_0.ODMcomplexTypeDefinitionItemRef",
                    "itemOID": "IT.ADLBHPV.R2A1LO",
                    "orderNumber": 34,
                    "mandatory": "No",
                    "methodOID": "MT.ADLBHPV.R2A1LO"
                  },
                  {
                    "TYPE_NAME": "define2_1_0.ODMcomplexTypeDefinitionItemRef",
                    "itemOID": "IT.ADLBHPV.R2A1HI",
                    "orderNumber": 35,
                    "mandatory": "No",
                    "methodOID": "MT.ADLBHPV.R2A1HI"
                  },
                  {
                    "TYPE_NAME": "define2_1_0.ODMcomplexTypeDefinitionItemRef",
                    "itemOID": "IT.ADLBHPV.BR2A1LO",
                    "orderNumber": 36,
                    "mandatory": "No",
                    "methodOID": "MT.ADLBHPV.BR2A1LO"
                  },
                  {
                    "TYPE_NAME": "define2_1_0.ODMcomplexTypeDefinitionItemRef",
                    "itemOID": "IT.ADLBHPV.BR2A1HI",
                    "orderNumber": 37,
                    "mandatory": "No",
                    "methodOID": "MT.ADLBHPV.BR2A1HI"
                  },
                  {
                    "TYPE_NAME": "define2_1_0.ODMcomplexTypeDefinitionItemRef",
                    "itemOID": "IT.ADLBHPV.ANL01FL",
                    "orderNumber": 38,
                    "mandatory": "No"
                  },
                  {
                    "TYPE_NAME": "define2_1_0.ODMcomplexTypeDefinitionItemRef",
                    "itemOID": "IT.ADLBHPV.ALBTRVAL",
                    "orderNumber": 39,
                    "mandatory": "No",
                    "methodOID": "MT.ADLBHPV.ALBTRVAL"
                  },
                  {
                    "TYPE_NAME": "define2_1_0.ODMcomplexTypeDefinitionItemRef",
                    "itemOID": "IT.ADLBHPV.ANRIND",
                    "orderNumber": 40,
                    "mandatory": "No"
                  },
                  {
                    "TYPE_NAME": "define2_1_0.ODMcomplexTypeDefinitionItemRef",
                    "itemOID": "IT.ADLBHPV.BNRIND",
                    "orderNumber": 41,
                    "mandatory": "No"
                  },
                  {
                    "TYPE_NAME": "define2_1_0.ODMcomplexTypeDefinitionItemRef",
                    "itemOID": "IT.ADLBHPV.ABLFL",
                    "orderNumber": 42,
                    "mandatory": "No"
                  },
                  {
                    "TYPE_NAME": "define2_1_0.ODMcomplexTypeDefinitionItemRef",
                    "itemOID": "IT.ADLBHPV.AENTMTFL",
                    "orderNumber": 43,
                    "mandatory": "No",
                    "methodOID": "MT.ADLBHPV.AENTMTFL"
                  },
                  {
                    "TYPE_NAME": "define2_1_0.ODMcomplexTypeDefinitionItemRef",
                    "itemOID": "IT.ADLBHPV.LBSEQ",
                    "orderNumber": 44,
                    "mandatory": "No",
                    "keySequence": 4,
                    "methodOID": "MT.ADLBHPV.LBSEQ"
                  },
                  {
                    "TYPE_NAME": "define2_1_0.ODMcomplexTypeDefinitionItemRef",
                    "itemOID": "IT.ADLBHPV.LBNRIND",
                    "orderNumber": 45,
                    "mandatory": "No",
                    "methodOID": "MT.ADLBHPV.LBNRIND"
                  },
                  {
                    "TYPE_NAME": "define2_1_0.ODMcomplexTypeDefinitionItemRef",
                    "itemOID": "IT.ADLBHPV.LBSTRESN",
                    "orderNumber": 46,
                    "mandatory": "No",
                    "methodOID": "MT.ADLBHPV.LBSTRESN"
                  }
                ]
              },
              {
                "TYPE_NAME": "define2_1_0.ODMcomplexTypeDefinitionItemGroupDef",
                "oid": "IG.ADLBHY",
                "name": "ADLBHY",
                "repeating": "Yes",
                "isReferenceData": "No",
                "sasDatasetName": "ADLBHY",
                "purpose": "Analysis",
                "description": {
                  "TYPE_NAME": "define2_1_0.ODMcomplexTypeDefinitionDescription",
                  "translatedText": [
                    {
                      "TYPE_NAME": "define2_1_0.ODMcomplexTypeDefinitionTranslatedText",
                      "lang": "en",
                      "value": "Analysis Dataset Lab Hy's Law"
                    }
                  ]
                },
                "itemRef": [
                  {
                    "TYPE_NAME": "define2_1_0.ODMcomplexTypeDefinitionItemRef",
                    "itemOID": "IT.ADLBHY.STUDYID",
                    "orderNumber": 1,
                    "mandatory": "No",
                    "methodOID": "MT.ADLBHY.STUDYID"
                  },
                  {
                    "TYPE_NAME": "define2_1_0.ODMcomplexTypeDefinitionItemRef",
                    "itemOID": "IT.ADLBHY.SUBJID",
                    "orderNumber": 2,
                    "mandatory": "No",
                    "methodOID": "MT.ADLBHY.SUBJID"
                  },
                  {
                    "TYPE_NAME": "define2_1_0.ODMcomplexTypeDefinitionItemRef",
                    "itemOID": "IT.ADLBHY.USUBJID",
                    "orderNumber": 3,
                    "mandatory": "No",
                    "keySequence": 1,
                    "methodOID": "MT.ADLBHY.USUBJID"
                  },
                  {
                    "TYPE_NAME": "define2_1_0.ODMcomplexTypeDefinitionItemRef",
                    "itemOID": "IT.ADLBHY.TRTP",
                    "orderNumber": 4,
                    "mandatory": "No",
                    "methodOID": "MT.ADLBHY.TRTP"
                  },
                  {
                    "TYPE_NAME": "define2_1_0.ODMcomplexTypeDefinitionItemRef",
                    "itemOID": "IT.ADLBHY.TRTPN",
                    "orderNumber": 5,
                    "mandatory": "No",
                    "methodOID": "MT.ADLBHY.TRTPN"
                  },
                  {
                    "TYPE_NAME": "define2_1_0.ODMcomplexTypeDefinitionItemRef",
                    "itemOID": "IT.ADLBHY.TRTA",
                    "orderNumber": 6,
                    "mandatory": "No",
                    "methodOID": "MT.ADLBHY.TRTA"
                  },
                  {
                    "TYPE_NAME": "define2_1_0.ODMcomplexTypeDefinitionItemRef",
                    "itemOID": "IT.ADLBHY.TRTAN",
                    "orderNumber": 7,
                    "mandatory": "No",
                    "methodOID": "MT.ADLBHY.TRTAN"
                  },
                  {
                    "TYPE_NAME": "define2_1_0.ODMcomplexTypeDefinitionItemRef",
                    "itemOID": "IT.ADLBHY.TRTSDT",
                    "orderNumber": 8,
                    "mandatory": "No",
                    "methodOID": "MT.ADLBHY.TRTSDT"
                  },
                  {
                    "TYPE_NAME": "define2_1_0.ODMcomplexTypeDefinitionItemRef",
                    "itemOID": "IT.ADLBHY.TRTEDT",
                    "orderNumber": 9,
                    "mandatory": "No",
                    "methodOID": "MT.ADLBHY.TRTEDT"
                  },
                  {
                    "TYPE_NAME": "define2_1_0.ODMcomplexTypeDefinitionItemRef",
                    "itemOID": "IT.ADLBHY.AGE",
                    "orderNumber": 10,
                    "mandatory": "No",
                    "methodOID": "MT.ADLBHY.AGE"
                  },
                  {
                    "TYPE_NAME": "define2_1_0.ODMcomplexTypeDefinitionItemRef",
                    "itemOID": "IT.ADLBHY.AGEGR1",
                    "orderNumber": 11,
                    "mandatory": "No",
                    "methodOID": "MT.ADLBHY.AGEGR1"
                  },
                  {
                    "TYPE_NAME": "define2_1_0.ODMcomplexTypeDefinitionItemRef",
                    "itemOID": "IT.ADLBHY.AGEGR1N",
                    "orderNumber": 12,
                    "mandatory": "No",
                    "methodOID": "MT.ADLBHY.AGEGR1N"
                  },
                  {
                    "TYPE_NAME": "define2_1_0.ODMcomplexTypeDefinitionItemRef",
                    "itemOID": "IT.ADLBHY.RACE",
                    "orderNumber": 13,
                    "mandatory": "No",
                    "methodOID": "MT.ADLBHY.RACE"
                  },
                  {
                    "TYPE_NAME": "define2_1_0.ODMcomplexTypeDefinitionItemRef",
                    "itemOID": "IT.ADLBHY.RACEN",
                    "orderNumber": 14,
                    "mandatory": "No",
                    "methodOID": "MT.ADLBHY.RACEN"
                  },
                  {
                    "TYPE_NAME": "define2_1_0.ODMcomplexTypeDefinitionItemRef",
                    "itemOID": "IT.ADLBHY.SEX",
                    "orderNumber": 15,
                    "mandatory": "No",
                    "methodOID": "MT.ADLBHY.SEX"
                  },
                  {
                    "TYPE_NAME": "define2_1_0.ODMcomplexTypeDefinitionItemRef",
                    "itemOID": "IT.ADLBHY.COMP24FL",
                    "orderNumber": 16,
                    "mandatory": "No",
                    "methodOID": "MT.ADLBHY.COMP24FL"
                  },
                  {
                    "TYPE_NAME": "define2_1_0.ODMcomplexTypeDefinitionItemRef",
                    "itemOID": "IT.ADLBHY.DSRAEFL",
                    "orderNumber": 17,
                    "mandatory": "No",
                    "methodOID": "MT.ADLBHY.DSRAEFL"
                  },
                  {
                    "TYPE_NAME": "define2_1_0.ODMcomplexTypeDefinitionItemRef",
                    "itemOID": "IT.ADLBHY.SAFFL",
                    "orderNumber": 18,
                    "mandatory": "No",
                    "methodOID": "MT.ADLBHY.SAFFL"
                  },
                  {
                    "TYPE_NAME": "define2_1_0.ODMcomplexTypeDefinitionItemRef",
                    "itemOID": "IT.ADLBHY.AVISIT",
                    "orderNumber": 19,
                    "mandatory": "No",
                    "keySequence": 3,
                    "methodOID": "MT.ADLBHY.AVISIT"
                  },
                  {
                    "TYPE_NAME": "define2_1_0.ODMcomplexTypeDefinitionItemRef",
                    "itemOID": "IT.ADLBHY.AVISITN",
                    "orderNumber": 20,
                    "mandatory": "No",
                    "methodOID": "MT.ADLBHY.AVISITN"
                  },
                  {
                    "TYPE_NAME": "define2_1_0.ODMcomplexTypeDefinitionItemRef",
                    "itemOID": "IT.ADLBHY.ADY",
                    "orderNumber": 21,
                    "mandatory": "No",
                    "methodOID": "MT.ADLBHY.ADY"
                  },
                  {
                    "TYPE_NAME": "define2_1_0.ODMcomplexTypeDefinitionItemRef",
                    "itemOID": "IT.ADLBHY.ADT",
                    "orderNumber": 22,
                    "mandatory": "No",
                    "methodOID": "MT.ADLBHY.ADT"
                  },
                  {
                    "TYPE_NAME": "define2_1_0.ODMcomplexTypeDefinitionItemRef",
                    "itemOID": "IT.ADLBHY.VISIT",
                    "orderNumber": 23,
                    "mandatory": "No",
                    "methodOID": "MT.ADLBHY.VISIT"
                  },
                  {
                    "TYPE_NAME": "define2_1_0.ODMcomplexTypeDefinitionItemRef",
                    "itemOID": "IT.ADLBHY.VISITNUM",
                    "orderNumber": 24,
                    "mandatory": "No",
                    "methodOID": "MT.ADLBHY.VISITNUM"
                  },
                  {
                    "TYPE_NAME": "define2_1_0.ODMcomplexTypeDefinitionItemRef",
                    "itemOID": "IT.ADLBHY.PARAMTYP",
                    "orderNumber": 25,
                    "mandatory": "No"
                  },
                  {
                    "TYPE_NAME": "define2_1_0.ODMcomplexTypeDefinitionItemRef",
                    "itemOID": "IT.ADLBHY.PARAM",
                    "orderNumber": 26,
                    "mandatory": "No",
                    "methodOID": "MT.ADLBHY.PARAM"
                  },
                  {
                    "TYPE_NAME": "define2_1_0.ODMcomplexTypeDefinitionItemRef",
                    "itemOID": "IT.ADLBHY.PARAMCD",
                    "orderNumber": 27,
                    "mandatory": "No",
                    "keySequence": 2
                  },
                  {
                    "TYPE_NAME": "define2_1_0.ODMcomplexTypeDefinitionItemRef",
                    "itemOID": "IT.ADLBHY.PARAMN",
                    "orderNumber": 28,
                    "mandatory": "No",
                    "methodOID": "MT.ADLBHY.PARAMN"
                  },
                  {
                    "TYPE_NAME": "define2_1_0.ODMcomplexTypeDefinitionItemRef",
                    "itemOID": "IT.ADLBHY.PARCAT1",
                    "orderNumber": 29,
                    "mandatory": "No"
                  },
                  {
                    "TYPE_NAME": "define2_1_0.ODMcomplexTypeDefinitionItemRef",
                    "itemOID": "IT.ADLBHY.AVAL",
                    "orderNumber": 30,
                    "mandatory": "No"
                  },
                  {
                    "TYPE_NAME": "define2_1_0.ODMcomplexTypeDefinitionItemRef",
                    "itemOID": "IT.ADLBHY.BASE",
                    "orderNumber": 31,
                    "mandatory": "No"
                  },
                  {
                    "TYPE_NAME": "define2_1_0.ODMcomplexTypeDefinitionItemRef",
                    "itemOID": "IT.ADLBHY.A1LO",
                    "orderNumber": 32,
                    "mandatory": "No"
                  },
                  {
                    "TYPE_NAME": "define2_1_0.ODMcomplexTypeDefinitionItemRef",
                    "itemOID": "IT.ADLBHY.A1HI",
                    "orderNumber": 33,
                    "mandatory": "No"
                  },
                  {
                    "TYPE_NAME": "define2_1_0.ODMcomplexTypeDefinitionItemRef",
                    "itemOID": "IT.ADLBHY.R2A1LO",
                    "orderNumber": 34,
                    "mandatory": "No"
                  },
                  {
                    "TYPE_NAME": "define2_1_0.ODMcomplexTypeDefinitionItemRef",
                    "itemOID": "IT.ADLBHY.R2A1HI",
                    "orderNumber": 35,
                    "mandatory": "No"
                  },
                  {
                    "TYPE_NAME": "define2_1_0.ODMcomplexTypeDefinitionItemRef",
                    "itemOID": "IT.ADLBHY.BR2A1LO",
                    "orderNumber": 36,
                    "mandatory": "No"
                  },
                  {
                    "TYPE_NAME": "define2_1_0.ODMcomplexTypeDefinitionItemRef",
                    "itemOID": "IT.ADLBHY.BR2A1HI",
                    "orderNumber": 37,
                    "mandatory": "No"
                  },
                  {
                    "TYPE_NAME": "define2_1_0.ODMcomplexTypeDefinitionItemRef",
                    "itemOID": "IT.ADLBHY.ABLFL",
                    "orderNumber": 38,
                    "mandatory": "No",
                    "methodOID": "MT.ADLBHY.ABLFL"
                  },
                  {
                    "TYPE_NAME": "define2_1_0.ODMcomplexTypeDefinitionItemRef",
                    "itemOID": "IT.ADLBHY.SHIFT1",
                    "orderNumber": 39,
                    "mandatory": "No"
                  },
                  {
                    "TYPE_NAME": "define2_1_0.ODMcomplexTypeDefinitionItemRef",
                    "itemOID": "IT.ADLBHY.SHIFT1N",
                    "orderNumber": 40,
                    "mandatory": "No",
                    "methodOID": "MT.ADLBHY.SHIFT1N"
                  },
                  {
                    "TYPE_NAME": "define2_1_0.ODMcomplexTypeDefinitionItemRef",
                    "itemOID": "IT.ADLBHY.CRIT1",
                    "orderNumber": 41,
                    "mandatory": "No"
                  },
                  {
                    "TYPE_NAME": "define2_1_0.ODMcomplexTypeDefinitionItemRef",
                    "itemOID": "IT.ADLBHY.CRIT1FL",
                    "orderNumber": 42,
                    "mandatory": "No"
                  },
                  {
                    "TYPE_NAME": "define2_1_0.ODMcomplexTypeDefinitionItemRef",
                    "itemOID": "IT.ADLBHY.CRIT1FN",
                    "orderNumber": 43,
                    "mandatory": "No",
                    "methodOID": "MT.ADLBHY.CRIT1FN"
                  }
                ]
              },
              {
                "TYPE_NAME": "define2_1_0.ODMcomplexTypeDefinitionItemGroupDef",
                "oid": "IG.ADNPIX",
                "name": "ADNPIX",
                "repeating": "Yes",
                "isReferenceData": "No",
                "sasDatasetName": "ADNPIX",
                "purpose": "Analysis",
                "description": {
                  "TYPE_NAME": "define2_1_0.ODMcomplexTypeDefinitionDescription",
                  "translatedText": [
                    {
                      "TYPE_NAME": "define2_1_0.ODMcomplexTypeDefinitionTranslatedText",
                      "lang": "en",
                      "value": "NPI-X Item Analysis Data"
                    }
                  ]
                },
                "itemRef": [
                  {
                    "TYPE_NAME": "define2_1_0.ODMcomplexTypeDefinitionItemRef",
                    "itemOID": "IT.ADNPIX.STUDYID",
                    "orderNumber": 1,
                    "mandatory": "No",
                    "methodOID": "MT.ADQSNPIX.STUDYID"
                  },
                  {
                    "TYPE_NAME": "define2_1_0.ODMcomplexTypeDefinitionItemRef",
                    "itemOID": "IT.ADNPIX.SITEID",
                    "orderNumber": 2,
                    "mandatory": "No",
                    "methodOID": "MT.ADQSNPIX.SITEID"
                  },
                  {
                    "TYPE_NAME": "define2_1_0.ODMcomplexTypeDefinitionItemRef",
                    "itemOID": "IT.ADNPIX.SITEGR1",
                    "orderNumber": 3,
                    "mandatory": "No",
                    "methodOID": "MT.ADQSNPIX.SITEGR1"
                  },
                  {
                    "TYPE_NAME": "define2_1_0.ODMcomplexTypeDefinitionItemRef",
                    "itemOID": "IT.ADNPIX.USUBJID",
                    "orderNumber": 4,
                    "mandatory": "No",
                    "keySequence": 1,
                    "methodOID": "MT.ADQSNPIX.USUBJID"
                  },
                  {
                    "TYPE_NAME": "define2_1_0.ODMcomplexTypeDefinitionItemRef",
                    "itemOID": "IT.ADNPIX.TRTSDT",
                    "orderNumber": 5,
                    "mandatory": "No",
                    "methodOID": "MT.ADQSNPIX.TRTSDT"
                  },
                  {
                    "TYPE_NAME": "define2_1_0.ODMcomplexTypeDefinitionItemRef",
                    "itemOID": "IT.ADNPIX.TRTEDT",
                    "orderNumber": 6,
                    "mandatory": "No",
                    "methodOID": "MT.ADQSNPIX.TRTEDT"
                  },
                  {
                    "TYPE_NAME": "define2_1_0.ODMcomplexTypeDefinitionItemRef",
                    "itemOID": "IT.ADNPIX.TRTP",
                    "orderNumber": 7,
                    "mandatory": "No",
                    "methodOID": "MT.ADQSNPIX.TRTP"
                  },
                  {
                    "TYPE_NAME": "define2_1_0.ODMcomplexTypeDefinitionItemRef",
                    "itemOID": "IT.ADNPIX.TRTPN",
                    "orderNumber": 8,
                    "mandatory": "No",
                    "methodOID": "MT.ADQSNPIX.TRTPN"
                  },
                  {
                    "TYPE_NAME": "define2_1_0.ODMcomplexTypeDefinitionItemRef",
                    "itemOID": "IT.ADNPIX.AGE",
                    "orderNumber": 9,
                    "mandatory": "No",
                    "methodOID": "MT.ADQSNPIX.AGE"
                  },
                  {
                    "TYPE_NAME": "define2_1_0.ODMcomplexTypeDefinitionItemRef",
                    "itemOID": "IT.ADNPIX.AGEGR1",
                    "orderNumber": 10,
                    "mandatory": "No",
                    "methodOID": "MT.ADQSNPIX.AGEGR1"
                  },
                  {
                    "TYPE_NAME": "define2_1_0.ODMcomplexTypeDefinitionItemRef",
                    "itemOID": "IT.ADNPIX.AGEGR1N",
                    "orderNumber": 11,
                    "mandatory": "No",
                    "methodOID": "MT.ADQSNPIX.AGEGR1N"
                  },
                  {
                    "TYPE_NAME": "define2_1_0.ODMcomplexTypeDefinitionItemRef",
                    "itemOID": "IT.ADNPIX.RACE",
                    "orderNumber": 12,
                    "mandatory": "No",
                    "methodOID": "MT.ADQSNPIX.RACE"
                  },
                  {
                    "TYPE_NAME": "define2_1_0.ODMcomplexTypeDefinitionItemRef",
                    "itemOID": "IT.ADNPIX.RACEN",
                    "orderNumber": 13,
                    "mandatory": "No",
                    "methodOID": "MT.ADQSNPIX.RACEN"
                  },
                  {
                    "TYPE_NAME": "define2_1_0.ODMcomplexTypeDefinitionItemRef",
                    "itemOID": "IT.ADNPIX.SEX",
                    "orderNumber": 14,
                    "mandatory": "No",
                    "methodOID": "MT.ADQSNPIX.SEX"
                  },
                  {
                    "TYPE_NAME": "define2_1_0.ODMcomplexTypeDefinitionItemRef",
                    "itemOID": "IT.ADNPIX.ITTFL",
                    "orderNumber": 15,
                    "mandatory": "No",
                    "methodOID": "MT.ADQSNPIX.ITTFL"
                  },
                  {
                    "TYPE_NAME": "define2_1_0.ODMcomplexTypeDefinitionItemRef",
                    "itemOID": "IT.ADNPIX.EFFFL",
                    "orderNumber": 16,
                    "mandatory": "No",
                    "methodOID": "MT.ADQSNPIX.EFFFL"
                  },
                  {
                    "TYPE_NAME": "define2_1_0.ODMcomplexTypeDefinitionItemRef",
                    "itemOID": "IT.ADNPIX.COMP24FL",
                    "orderNumber": 17,
                    "mandatory": "No",
                    "methodOID": "MT.ADQSNPIX.COMP24FL"
                  },
                  {
                    "TYPE_NAME": "define2_1_0.ODMcomplexTypeDefinitionItemRef",
                    "itemOID": "IT.ADNPIX.AVISIT",
                    "orderNumber": 18,
                    "mandatory": "No",
                    "keySequence": 3,
                    "methodOID": "MT.ADQSNPIX.AVISIT"
                  },
                  {
                    "TYPE_NAME": "define2_1_0.ODMcomplexTypeDefinitionItemRef",
                    "itemOID": "IT.ADNPIX.AVISITN",
                    "orderNumber": 19,
                    "mandatory": "No",
                    "methodOID": "MT.ADQSNPIX.AVISITN"
                  },
                  {
                    "TYPE_NAME": "define2_1_0.ODMcomplexTypeDefinitionItemRef",
                    "itemOID": "IT.ADNPIX.ADY",
                    "orderNumber": 20,
                    "mandatory": "No",
                    "methodOID": "MT.ADQSNPIX.ADY"
                  },
                  {
                    "TYPE_NAME": "define2_1_0.ODMcomplexTypeDefinitionItemRef",
                    "itemOID": "IT.ADNPIX.ADT",
                    "orderNumber": 21,
                    "mandatory": "No",
                    "keySequence": 4,
                    "methodOID": "MT.ADQSNPIX.ADT"
                  },
                  {
                    "TYPE_NAME": "define2_1_0.ODMcomplexTypeDefinitionItemRef",
                    "itemOID": "IT.ADNPIX.VISITNUM",
                    "orderNumber": 22,
                    "mandatory": "No",
                    "methodOID": "MT.ADQSNPIX.VISITNUM"
                  },
                  {
                    "TYPE_NAME": "define2_1_0.ODMcomplexTypeDefinitionItemRef",
                    "itemOID": "IT.ADNPIX.VISIT",
                    "orderNumber": 23,
                    "mandatory": "No",
                    "methodOID": "MT.ADQSNPIX.VISIT"
                  },
                  {
                    "TYPE_NAME": "define2_1_0.ODMcomplexTypeDefinitionItemRef",
                    "itemOID": "IT.ADNPIX.PARAM",
                    "orderNumber": 24,
                    "mandatory": "No"
                  },
                  {
                    "TYPE_NAME": "define2_1_0.ODMcomplexTypeDefinitionItemRef",
                    "itemOID": "IT.ADNPIX.PARAMCD",
                    "orderNumber": 25,
                    "mandatory": "No",
                    "keySequence": 2
                  },
                  {
                    "TYPE_NAME": "define2_1_0.ODMcomplexTypeDefinitionItemRef",
                    "itemOID": "IT.ADNPIX.PARAMN",
                    "orderNumber": 26,
                    "mandatory": "No",
                    "methodOID": "MT.ADQSNPIX.PARAMN"
                  },
                  {
                    "TYPE_NAME": "define2_1_0.ODMcomplexTypeDefinitionItemRef",
                    "itemOID": "IT.ADNPIX.PARAMTYP",
                    "orderNumber": 27,
                    "mandatory": "No"
                  },
                  {
                    "TYPE_NAME": "define2_1_0.ODMcomplexTypeDefinitionItemRef",
                    "itemOID": "IT.ADNPIX.AVAL",
                    "orderNumber": 28,
                    "mandatory": "No"
                  },
                  {
                    "TYPE_NAME": "define2_1_0.ODMcomplexTypeDefinitionItemRef",
                    "itemOID": "IT.ADNPIX.BASE",
                    "orderNumber": 29,
                    "mandatory": "No"
                  },
                  {
                    "TYPE_NAME": "define2_1_0.ODMcomplexTypeDefinitionItemRef",
                    "itemOID": "IT.ADNPIX.CHG",
                    "orderNumber": 30,
                    "mandatory": "No"
                  },
                  {
                    "TYPE_NAME": "define2_1_0.ODMcomplexTypeDefinitionItemRef",
                    "itemOID": "IT.ADNPIX.PCHG",
                    "orderNumber": 31,
                    "mandatory": "No"
                  },
                  {
                    "TYPE_NAME": "define2_1_0.ODMcomplexTypeDefinitionItemRef",
                    "itemOID": "IT.ADNPIX.ABLFL",
                    "orderNumber": 32,
                    "mandatory": "No"
                  },
                  {
                    "TYPE_NAME": "define2_1_0.ODMcomplexTypeDefinitionItemRef",
                    "itemOID": "IT.ADNPIX.ANL01FL",
                    "orderNumber": 33,
                    "mandatory": "No"
                  },
                  {
                    "TYPE_NAME": "define2_1_0.ODMcomplexTypeDefinitionItemRef",
                    "itemOID": "IT.ADNPIX.DTYPE",
                    "orderNumber": 34,
                    "mandatory": "No"
                  },
                  {
                    "TYPE_NAME": "define2_1_0.ODMcomplexTypeDefinitionItemRef",
                    "itemOID": "IT.ADNPIX.AWRANGE",
                    "orderNumber": 35,
                    "mandatory": "No",
                    "methodOID": "MT.ADQSNPIX.AWRANGE"
                  },
                  {
                    "TYPE_NAME": "define2_1_0.ODMcomplexTypeDefinitionItemRef",
                    "itemOID": "IT.ADNPIX.AWTARGET",
                    "orderNumber": 36,
                    "mandatory": "No",
                    "methodOID": "MT.ADQSNPIX.AWTARGET"
                  },
                  {
                    "TYPE_NAME": "define2_1_0.ODMcomplexTypeDefinitionItemRef",
                    "itemOID": "IT.ADNPIX.AWTDIFF",
                    "orderNumber": 37,
                    "mandatory": "No",
                    "methodOID": "MT.ADQSNPIX.AWTDIFF"
                  },
                  {
                    "TYPE_NAME": "define2_1_0.ODMcomplexTypeDefinitionItemRef",
                    "itemOID": "IT.ADNPIX.AWLO",
                    "orderNumber": 38,
                    "mandatory": "No",
                    "methodOID": "MT.ADQSNPIX.AWLO"
                  },
                  {
                    "TYPE_NAME": "define2_1_0.ODMcomplexTypeDefinitionItemRef",
                    "itemOID": "IT.ADNPIX.AWHI",
                    "orderNumber": 39,
                    "mandatory": "No",
                    "methodOID": "MT.ADQSNPIX.AWHI"
                  },
                  {
                    "TYPE_NAME": "define2_1_0.ODMcomplexTypeDefinitionItemRef",
                    "itemOID": "IT.ADNPIX.AWU",
                    "orderNumber": 40,
                    "mandatory": "No",
                    "methodOID": "MT.ADQSNPIX.AWU"
                  },
                  {
                    "TYPE_NAME": "define2_1_0.ODMcomplexTypeDefinitionItemRef",
                    "itemOID": "IT.ADNPIX.QSSEQ",
                    "orderNumber": 41,
                    "mandatory": "No"
                  }
                ]
              },
              {
                "TYPE_NAME": "define2_1_0.ODMcomplexTypeDefinitionItemGroupDef",
                "oid": "IG.ADSL",
                "name": "ADSL",
                "repeating": "No",
                "isReferenceData": "No",
                "sasDatasetName": "ADSL",
                "purpose": "Analysis",
                "description": {
                  "TYPE_NAME": "define2_1_0.ODMcomplexTypeDefinitionDescription",
                  "translatedText": [
                    {
                      "TYPE_NAME": "define2_1_0.ODMcomplexTypeDefinitionTranslatedText",
                      "lang": "en",
                      "value": "Subject-Level Analysis"
                    }
                  ]
                },
                "itemRef": [
                  {
                    "TYPE_NAME": "define2_1_0.ODMcomplexTypeDefinitionItemRef",
                    "itemOID": "IT.ADSL.STUDYID",
                    "orderNumber": 1,
                    "mandatory": "No",
                    "methodOID": "MT.ADSL.STUDYID"
                  },
                  {
                    "TYPE_NAME": "define2_1_0.ODMcomplexTypeDefinitionItemRef",
                    "itemOID": "IT.ADSL.USUBJID",
                    "orderNumber": 2,
                    "mandatory": "No",
                    "keySequence": 1,
                    "methodOID": "MT.ADSL.USUBJID"
                  },
                  {
                    "TYPE_NAME": "define2_1_0.ODMcomplexTypeDefinitionItemRef",
                    "itemOID": "IT.ADSL.SUBJID",
                    "orderNumber": 3,
                    "mandatory": "No",
                    "methodOID": "MT.ADSL.SUBJID"
                  },
                  {
                    "TYPE_NAME": "define2_1_0.ODMcomplexTypeDefinitionItemRef",
                    "itemOID": "IT.ADSL.SITEID",
                    "orderNumber": 4,
                    "mandatory": "No",
                    "methodOID": "MT.ADSL.SITEID"
                  },
                  {
                    "TYPE_NAME": "define2_1_0.ODMcomplexTypeDefinitionItemRef",
                    "itemOID": "IT.ADSL.SITEGR1",
                    "orderNumber": 5,
                    "mandatory": "No",
                    "methodOID": "MT.ADSL.SITEGR1"
                  },
                  {
                    "TYPE_NAME": "define2_1_0.ODMcomplexTypeDefinitionItemRef",
                    "itemOID": "IT.ADSL.ARM",
                    "orderNumber": 6,
                    "mandatory": "No",
                    "methodOID": "MT.ADSL.ARM"
                  },
                  {
                    "TYPE_NAME": "define2_1_0.ODMcomplexTypeDefinitionItemRef",
                    "itemOID": "IT.ADSL.TRT01P",
                    "orderNumber": 7,
                    "mandatory": "No",
                    "methodOID": "MT.ADSL.TRT01P"
                  },
                  {
                    "TYPE_NAME": "define2_1_0.ODMcomplexTypeDefinitionItemRef",
                    "itemOID": "IT.ADSL.TRT01PN",
                    "orderNumber": 8,
                    "mandatory": "No",
                    "methodOID": "MT.ADSL.TRT01PN"
                  },
                  {
                    "TYPE_NAME": "define2_1_0.ODMcomplexTypeDefinitionItemRef",
                    "itemOID": "IT.ADSL.TRT01A",
                    "orderNumber": 9,
                    "mandatory": "No",
                    "methodOID": "MT.ADSL.TRT01A"
                  },
                  {
                    "TYPE_NAME": "define2_1_0.ODMcomplexTypeDefinitionItemRef",
                    "itemOID": "IT.ADSL.TRT01AN",
                    "orderNumber": 10,
                    "mandatory": "No",
                    "methodOID": "MT.ADSL.TRT01AN"
                  },
                  {
                    "TYPE_NAME": "define2_1_0.ODMcomplexTypeDefinitionItemRef",
                    "itemOID": "IT.ADSL.TRTSDT",
                    "orderNumber": 11,
                    "mandatory": "No",
                    "methodOID": "MT.ADSL.TRTSDT"
                  },
                  {
                    "TYPE_NAME": "define2_1_0.ODMcomplexTypeDefinitionItemRef",
                    "itemOID": "IT.ADSL.TRTEDT",
                    "orderNumber": 12,
                    "mandatory": "No",
                    "methodOID": "MT.ADSL.TRTEDT"
                  },
                  {
                    "TYPE_NAME": "define2_1_0.ODMcomplexTypeDefinitionItemRef",
                    "itemOID": "IT.ADSL.TRTDURD",
                    "orderNumber": 13,
                    "mandatory": "No",
                    "methodOID": "MT.ADSL.TRTDUR"
                  },
                  {
                    "TYPE_NAME": "define2_1_0.ODMcomplexTypeDefinitionItemRef",
                    "itemOID": "IT.ADSL.AVGDD",
                    "orderNumber": 14,
                    "mandatory": "No",
                    "methodOID": "MT.ADSL.AVGDD"
                  },
                  {
                    "TYPE_NAME": "define2_1_0.ODMcomplexTypeDefinitionItemRef",
                    "itemOID": "IT.ADSL.CUMDOSE",
                    "orderNumber": 15,
                    "mandatory": "No",
                    "methodOID": "MT.ADSL.CUMDOSE"
                  },
                  {
                    "TYPE_NAME": "define2_1_0.ODMcomplexTypeDefinitionItemRef",
                    "itemOID": "IT.ADSL.AGE",
                    "orderNumber": 16,
                    "mandatory": "No",
                    "methodOID": "MT.ADSL.AGE"
                  },
                  {
                    "TYPE_NAME": "define2_1_0.ODMcomplexTypeDefinitionItemRef",
                    "itemOID": "IT.ADSL.AGEGR1",
                    "orderNumber": 17,
                    "mandatory": "No",
                    "methodOID": "MT.ADSL.AGEGR1"
                  },
                  {
                    "TYPE_NAME": "define2_1_0.ODMcomplexTypeDefinitionItemRef",
                    "itemOID": "IT.ADSL.AGEGR1N",
                    "orderNumber": 18,
                    "mandatory": "No",
                    "methodOID": "MT.ADSL.AGEGR1N"
                  },
                  {
                    "TYPE_NAME": "define2_1_0.ODMcomplexTypeDefinitionItemRef",
                    "itemOID": "IT.ADSL.AGEU",
                    "orderNumber": 19,
                    "mandatory": "No",
                    "methodOID": "MT.ADSL.AGEU"
                  },
                  {
                    "TYPE_NAME": "define2_1_0.ODMcomplexTypeDefinitionItemRef",
                    "itemOID": "IT.ADSL.RACE",
                    "orderNumber": 20,
                    "mandatory": "No",
                    "methodOID": "MT.ADSL.RACE"
                  },
                  {
                    "TYPE_NAME": "define2_1_0.ODMcomplexTypeDefinitionItemRef",
                    "itemOID": "IT.ADSL.RACEN",
                    "orderNumber": 21,
                    "mandatory": "No",
                    "methodOID": "MT.ADSL.RACEN"
                  },
                  {
                    "TYPE_NAME": "define2_1_0.ODMcomplexTypeDefinitionItemRef",
                    "itemOID": "IT.ADSL.SEX",
                    "orderNumber": 22,
                    "mandatory": "No",
                    "methodOID": "MT.ADSL.SEX"
                  },
                  {
                    "TYPE_NAME": "define2_1_0.ODMcomplexTypeDefinitionItemRef",
                    "itemOID": "IT.ADSL.ETHNIC",
                    "orderNumber": 23,
                    "mandatory": "No",
                    "methodOID": "MT.ADSL.ETHNIC"
                  },
                  {
                    "TYPE_NAME": "define2_1_0.ODMcomplexTypeDefinitionItemRef",
                    "itemOID": "IT.ADSL.SAFFL",
                    "orderNumber": 24,
                    "mandatory": "No",
                    "methodOID": "MT.ADSL.SAFFL"
                  },
                  {
                    "TYPE_NAME": "define2_1_0.ODMcomplexTypeDefinitionItemRef",
                    "itemOID": "IT.ADSL.ITTFL",
                    "orderNumber": 25,
                    "mandatory": "No",
                    "methodOID": "MT.ADSL.ITTFL"
                  },
                  {
                    "TYPE_NAME": "define2_1_0.ODMcomplexTypeDefinitionItemRef",
                    "itemOID": "IT.ADSL.EFFFL",
                    "orderNumber": 26,
                    "mandatory": "No",
                    "methodOID": "MT.ADSL.EFFFL"
                  },
                  {
                    "TYPE_NAME": "define2_1_0.ODMcomplexTypeDefinitionItemRef",
                    "itemOID": "IT.ADSL.COMP8FL",
                    "orderNumber": 27,
                    "mandatory": "No",
                    "methodOID": "MT.ADSL.COMP8FL"
                  },
                  {
                    "TYPE_NAME": "define2_1_0.ODMcomplexTypeDefinitionItemRef",
                    "itemOID": "IT.ADSL.COMP16FL",
                    "orderNumber": 28,
                    "mandatory": "No",
                    "methodOID": "MT.ADSL.COMP16FL"
                  },
                  {
                    "TYPE_NAME": "define2_1_0.ODMcomplexTypeDefinitionItemRef",
                    "itemOID": "IT.ADSL.COMP24FL",
                    "orderNumber": 29,
                    "mandatory": "No",
                    "methodOID": "MT.ADSL.COMP24FL"
                  },
                  {
                    "TYPE_NAME": "define2_1_0.ODMcomplexTypeDefinitionItemRef",
                    "itemOID": "IT.ADSL.DISCONFL",
                    "orderNumber": 30,
                    "mandatory": "No",
                    "methodOID": "MT.ADSL.DISCONFL"
                  },
                  {
                    "TYPE_NAME": "define2_1_0.ODMcomplexTypeDefinitionItemRef",
                    "itemOID": "IT.ADSL.DSRAEFL",
                    "orderNumber": 31,
                    "mandatory": "No",
                    "methodOID": "MT.ADSL.DSRAEFL"
                  },
                  {
                    "TYPE_NAME": "define2_1_0.ODMcomplexTypeDefinitionItemRef",
                    "itemOID": "IT.ADSL.DTHFL",
                    "orderNumber": 32,
                    "mandatory": "No",
                    "methodOID": "MT.ADSL.DTHFL"
                  },
                  {
                    "TYPE_NAME": "define2_1_0.ODMcomplexTypeDefinitionItemRef",
                    "itemOID": "IT.ADSL.BMIBL",
                    "orderNumber": 33,
                    "mandatory": "No",
                    "methodOID": "MT.ADSL.BMIBL"
                  },
                  {
                    "TYPE_NAME": "define2_1_0.ODMcomplexTypeDefinitionItemRef",
                    "itemOID": "IT.ADSL.BMIBLGR1",
                    "orderNumber": 34,
                    "mandatory": "No",
                    "methodOID": "MT.ADSL.BMIBLGR1"
                  },
                  {
                    "TYPE_NAME": "define2_1_0.ODMcomplexTypeDefinitionItemRef",
                    "itemOID": "IT.ADSL.HEIGHTBL",
                    "orderNumber": 35,
                    "mandatory": "No",
                    "methodOID": "MT.ADSL.HEIGHTBL"
                  },
                  {
                    "TYPE_NAME": "define2_1_0.ODMcomplexTypeDefinitionItemRef",
                    "itemOID": "IT.ADSL.WEIGHTBL",
                    "orderNumber": 36,
                    "mandatory": "No",
                    "methodOID": "MT.ADSL.WEIGHTBL"
                  },
                  {
                    "TYPE_NAME": "define2_1_0.ODMcomplexTypeDefinitionItemRef",
                    "itemOID": "IT.ADSL.EDUCLVL",
                    "orderNumber": 37,
                    "mandatory": "No",
                    "methodOID": "MT.ADSL.EDUCLVL"
                  },
                  {
                    "TYPE_NAME": "define2_1_0.ODMcomplexTypeDefinitionItemRef",
                    "itemOID": "IT.ADSL.DISONSDT",
                    "orderNumber": 38,
                    "mandatory": "No",
                    "methodOID": "MT.ADSL.DISONSDT"
                  },
                  {
                    "TYPE_NAME": "define2_1_0.ODMcomplexTypeDefinitionItemRef",
                    "itemOID": "IT.ADSL.DURDIS",
                    "orderNumber": 39,
                    "mandatory": "No",
                    "methodOID": "MT.ADSL.DURDIS"
                  },
                  {
                    "TYPE_NAME": "define2_1_0.ODMcomplexTypeDefinitionItemRef",
                    "itemOID": "IT.ADSL.DURDSGR1",
                    "orderNumber": 40,
                    "mandatory": "No",
                    "methodOID": "MT.ADSL.DURDSGR1"
                  },
                  {
                    "TYPE_NAME": "define2_1_0.ODMcomplexTypeDefinitionItemRef",
                    "itemOID": "IT.ADSL.VISIT1DT",
                    "orderNumber": 41,
                    "mandatory": "No",
                    "methodOID": "MT.ADSL.VISIT1DT"
                  },
                  {
                    "TYPE_NAME": "define2_1_0.ODMcomplexTypeDefinitionItemRef",
                    "itemOID": "IT.ADSL.RFSTDTC",
                    "orderNumber": 42,
                    "mandatory": "No",
                    "methodOID": "MT.ADSL.RFSTDTC"
                  },
                  {
                    "TYPE_NAME": "define2_1_0.ODMcomplexTypeDefinitionItemRef",
                    "itemOID": "IT.ADSL.RFENDTC",
                    "orderNumber": 43,
                    "mandatory": "No",
                    "methodOID": "MT.ADSL.RFENDTC"
                  },
                  {
                    "TYPE_NAME": "define2_1_0.ODMcomplexTypeDefinitionItemRef",
                    "itemOID": "IT.ADSL.VISNUMEN",
                    "orderNumber": 44,
                    "mandatory": "No",
                    "methodOID": "MT.ADSL.VISNUMEN"
                  },
                  {
                    "TYPE_NAME": "define2_1_0.ODMcomplexTypeDefinitionItemRef",
                    "itemOID": "IT.ADSL.RFENDT",
                    "orderNumber": 45,
                    "mandatory": "No",
                    "methodOID": "MT.ADSL.RFENDT"
                  },
                  {
                    "TYPE_NAME": "define2_1_0.ODMcomplexTypeDefinitionItemRef",
                    "itemOID": "IT.ADSL.DCDECOD",
                    "orderNumber": 46,
                    "mandatory": "No",
                    "methodOID": "MT.ADSL.DCDECOD"
                  },
                  {
                    "TYPE_NAME": "define2_1_0.ODMcomplexTypeDefinitionItemRef",
                    "itemOID": "IT.ADSL.EOSSTT",
                    "orderNumber": 47,
                    "mandatory": "No",
                    "methodOID": "MT.ADSL.EOSSTT"
                  },
                  {
                    "TYPE_NAME": "define2_1_0.ODMcomplexTypeDefinitionItemRef",
                    "itemOID": "IT.ADSL.DCSREAS",
                    "orderNumber": 48,
                    "mandatory": "No",
                    "methodOID": "MT.ADSL.DCREASCD"
                  },
                  {
                    "TYPE_NAME": "define2_1_0.ODMcomplexTypeDefinitionItemRef",
                    "itemOID": "IT.ADSL.MMSETOT",
                    "orderNumber": 49,
                    "mandatory": "No",
                    "methodOID": "MT.ADSL.MMSETOT"
                  }
                ]
              },
              {
                "TYPE_NAME": "define2_1_0.ODMcomplexTypeDefinitionItemGroupDef",
                "oid": "IG.ADTTE",
                "name": "ADTTE",
                "repeating": "Yes",
                "isReferenceData": "No",
                "sasDatasetName": "ADTTE",
                "purpose": "Analysis",
                "description": {
                  "TYPE_NAME": "define2_1_0.ODMcomplexTypeDefinitionDescription",
                  "translatedText": [
                    {
                      "TYPE_NAME": "define2_1_0.ODMcomplexTypeDefinitionTranslatedText",
                      "lang": "en",
                      "value": "AE Time To 1st Derm. Event Analysis"
                    }
                  ]
                },
                "itemRef": [
                  {
                    "TYPE_NAME": "define2_1_0.ODMcomplexTypeDefinitionItemRef",
                    "itemOID": "IT.ADTTE.STUDYID",
                    "orderNumber": 1,
                    "mandatory": "No",
                    "methodOID": "MT.ADTTE.STUDYID"
                  },
                  {
                    "TYPE_NAME": "define2_1_0.ODMcomplexTypeDefinitionItemRef",
                    "itemOID": "IT.ADTTE.SITEID",
                    "orderNumber": 2,
                    "mandatory": "No",
                    "methodOID": "MT.ADTTE.SITEID"
                  },
                  {
                    "TYPE_NAME": "define2_1_0.ODMcomplexTypeDefinitionItemRef",
                    "itemOID": "IT.ADTTE.USUBJID",
                    "orderNumber": 3,
                    "mandatory": "No",
                    "keySequence": 1,
                    "methodOID": "MT.ADTTE.USUBJID"
                  },
                  {
                    "TYPE_NAME": "define2_1_0.ODMcomplexTypeDefinitionItemRef",
                    "itemOID": "IT.ADTTE.AGE",
                    "orderNumber": 4,
                    "mandatory": "No",
                    "methodOID": "MT.ADTTE.AGE"
                  },
                  {
                    "TYPE_NAME": "define2_1_0.ODMcomplexTypeDefinitionItemRef",
                    "itemOID": "IT.ADTTE.AGEGR1",
                    "orderNumber": 5,
                    "mandatory": "No",
                    "methodOID": "MT.ADTTE.AGEGR1"
                  },
                  {
                    "TYPE_NAME": "define2_1_0.ODMcomplexTypeDefinitionItemRef",
                    "itemOID": "IT.ADTTE.AGEGR1N",
                    "orderNumber": 6,
                    "mandatory": "No",
                    "methodOID": "MT.ADTTE.AGEGR1N"
                  },
                  {
                    "TYPE_NAME": "define2_1_0.ODMcomplexTypeDefinitionItemRef",
                    "itemOID": "IT.ADTTE.RACE",
                    "orderNumber": 7,
                    "mandatory": "No",
                    "methodOID": "MT.ADTTE.RACE"
                  },
                  {
                    "TYPE_NAME": "define2_1_0.ODMcomplexTypeDefinitionItemRef",
                    "itemOID": "IT.ADTTE.RACEN",
                    "orderNumber": 8,
                    "mandatory": "No",
                    "methodOID": "MT.ADTTE.RACEN"
                  },
                  {
                    "TYPE_NAME": "define2_1_0.ODMcomplexTypeDefinitionItemRef",
                    "itemOID": "IT.ADTTE.SEX",
                    "orderNumber": 9,
                    "mandatory": "No",
                    "methodOID": "MT.ADTTE.SEX"
                  },
                  {
                    "TYPE_NAME": "define2_1_0.ODMcomplexTypeDefinitionItemRef",
                    "itemOID": "IT.ADTTE.TRTSDT",
                    "orderNumber": 10,
                    "mandatory": "No",
                    "methodOID": "MT.ADTTE.TRTSDT"
                  },
                  {
                    "TYPE_NAME": "define2_1_0.ODMcomplexTypeDefinitionItemRef",
                    "itemOID": "IT.ADTTE.TRTEDT",
                    "orderNumber": 11,
                    "mandatory": "No",
                    "methodOID": "MT.ADTTE.TRTEDT"
                  },
                  {
                    "TYPE_NAME": "define2_1_0.ODMcomplexTypeDefinitionItemRef",
                    "itemOID": "IT.ADTTE.TRTDUR",
                    "orderNumber": 12,
                    "mandatory": "No",
                    "methodOID": "MT.ADTTE.TRTDUR"
                  },
                  {
                    "TYPE_NAME": "define2_1_0.ODMcomplexTypeDefinitionItemRef",
                    "itemOID": "IT.ADTTE.TRTP",
                    "orderNumber": 13,
                    "mandatory": "No",
                    "methodOID": "MT.ADTTE.TRTP"
                  },
                  {
                    "TYPE_NAME": "define2_1_0.ODMcomplexTypeDefinitionItemRef",
                    "itemOID": "IT.ADTTE.TRTA",
                    "orderNumber": 14,
                    "mandatory": "No",
                    "methodOID": "MT.ADTTE.TRTA"
                  },
                  {
                    "TYPE_NAME": "define2_1_0.ODMcomplexTypeDefinitionItemRef",
                    "itemOID": "IT.ADTTE.TRTAN",
                    "orderNumber": 15,
                    "mandatory": "No",
                    "methodOID": "MT.ADTTE.TRTAN"
                  },
                  {
                    "TYPE_NAME": "define2_1_0.ODMcomplexTypeDefinitionItemRef",
                    "itemOID": "IT.ADTTE.PARAM",
                    "orderNumber": 16,
                    "mandatory": "No",
                    "methodOID": "MT.ADTTE.PARAM"
                  },
                  {
                    "TYPE_NAME": "define2_1_0.ODMcomplexTypeDefinitionItemRef",
                    "itemOID": "IT.ADTTE.PARAMCD",
                    "orderNumber": 17,
                    "mandatory": "No",
                    "keySequence": 2,
                    "methodOID": "MT.ADTTE.PARAMCD"
                  },
                  {
                    "TYPE_NAME": "define2_1_0.ODMcomplexTypeDefinitionItemRef",
                    "itemOID": "IT.ADTTE.AVAL",
                    "orderNumber": 18,
                    "mandatory": "No",
                    "methodOID": "MT.ADTTE.AVAL"
                  },
                  {
                    "TYPE_NAME": "define2_1_0.ODMcomplexTypeDefinitionItemRef",
                    "itemOID": "IT.ADTTE.STARTDT",
                    "orderNumber": 19,
                    "mandatory": "No",
                    "methodOID": "MT.ADTTE.STARTDT"
                  },
                  {
                    "TYPE_NAME": "define2_1_0.ODMcomplexTypeDefinitionItemRef",
                    "itemOID": "IT.ADTTE.ADT",
                    "orderNumber": 20,
                    "mandatory": "No",
                    "methodOID": "MT.ADTTE.ADT"
                  },
                  {
                    "TYPE_NAME": "define2_1_0.ODMcomplexTypeDefinitionItemRef",
                    "itemOID": "IT.ADTTE.CNSR",
                    "orderNumber": 21,
                    "mandatory": "No",
                    "methodOID": "MT.ADTTE.CNSR"
                  },
                  {
                    "TYPE_NAME": "define2_1_0.ODMcomplexTypeDefinitionItemRef",
                    "itemOID": "IT.ADTTE.EVNTDESC",
                    "orderNumber": 22,
                    "mandatory": "No",
                    "methodOID": "MT.ADTTE.EVNTDESC"
                  },
                  {
                    "TYPE_NAME": "define2_1_0.ODMcomplexTypeDefinitionItemRef",
                    "itemOID": "IT.ADTTE.SRCDOM",
                    "orderNumber": 23,
                    "mandatory": "No",
                    "methodOID": "MT.ADTTE.SRCDOM"
                  },
                  {
                    "TYPE_NAME": "define2_1_0.ODMcomplexTypeDefinitionItemRef",
                    "itemOID": "IT.ADTTE.SRCVAR",
                    "orderNumber": 24,
                    "mandatory": "No",
                    "methodOID": "MT.ADTTE.SRCVAR"
                  },
                  {
                    "TYPE_NAME": "define2_1_0.ODMcomplexTypeDefinitionItemRef",
                    "itemOID": "IT.ADTTE.SRCSEQ",
                    "orderNumber": 25,
                    "mandatory": "No",
                    "methodOID": "MT.ADTTE.SRCSEQ"
                  },
                  {
                    "TYPE_NAME": "define2_1_0.ODMcomplexTypeDefinitionItemRef",
                    "itemOID": "IT.ADTTE.SAFFL",
                    "orderNumber": 26,
                    "mandatory": "No",
                    "methodOID": "MT.ADTTE.SAFFL"
                  }
                ]
              },
              {
                "TYPE_NAME": "define2_1_0.ODMcomplexTypeDefinitionItemGroupDef",
                "oid": "IG.ADVS",
                "name": "ADVS",
                "repeating": "Yes",
                "isReferenceData": "No",
                "sasDatasetName": "ADVS",
                "purpose": "Analysis",
                "description": {
                  "TYPE_NAME": "define2_1_0.ODMcomplexTypeDefinitionDescription",
                  "translatedText": [
                    {
                      "TYPE_NAME": "define2_1_0.ODMcomplexTypeDefinitionTranslatedText",
                      "lang": "en",
                      "value": "Vital Signs Analysis Dataset"
                    }
                  ]
                },
                "itemRef": [
                  {
                    "TYPE_NAME": "define2_1_0.ODMcomplexTypeDefinitionItemRef",
                    "itemOID": "IT.ADVS.STUDYID",
                    "orderNumber": 1,
                    "mandatory": "No",
                    "methodOID": "MT.ADVS.STUDYID"
                  },
                  {
                    "TYPE_NAME": "define2_1_0.ODMcomplexTypeDefinitionItemRef",
                    "itemOID": "IT.ADVS.SITEID",
                    "orderNumber": 2,
                    "mandatory": "No",
                    "methodOID": "MT.ADVS.SITEID"
                  },
                  {
                    "TYPE_NAME": "define2_1_0.ODMcomplexTypeDefinitionItemRef",
                    "itemOID": "IT.ADVS.USUBJID",
                    "orderNumber": 3,
                    "mandatory": "No",
                    "keySequence": 1,
                    "methodOID": "MT.ADVS.USUBJID"
                  },
                  {
                    "TYPE_NAME": "define2_1_0.ODMcomplexTypeDefinitionItemRef",
                    "itemOID": "IT.ADVS.AGE",
                    "orderNumber": 4,
                    "mandatory": "No",
                    "methodOID": "MT.ADVS.AGE"
                  },
                  {
                    "TYPE_NAME": "define2_1_0.ODMcomplexTypeDefinitionItemRef",
                    "itemOID": "IT.ADVS.AGEGR1",
                    "orderNumber": 5,
                    "mandatory": "No",
                    "methodOID": "MT.ADVS.AGEGR1"
                  },
                  {
                    "TYPE_NAME": "define2_1_0.ODMcomplexTypeDefinitionItemRef",
                    "itemOID": "IT.ADVS.AGEGR1N",
                    "orderNumber": 6,
                    "mandatory": "No",
                    "methodOID": "MT.ADVS.AGEGR1N"
                  },
                  {
                    "TYPE_NAME": "define2_1_0.ODMcomplexTypeDefinitionItemRef",
                    "itemOID": "IT.ADVS.RACE",
                    "orderNumber": 7,
                    "mandatory": "No",
                    "methodOID": "MT.ADVS.RACE"
                  },
                  {
                    "TYPE_NAME": "define2_1_0.ODMcomplexTypeDefinitionItemRef",
                    "itemOID": "IT.ADVS.RACEN",
                    "orderNumber": 8,
                    "mandatory": "No",
                    "methodOID": "MT.ADVS.RACEN"
                  },
                  {
                    "TYPE_NAME": "define2_1_0.ODMcomplexTypeDefinitionItemRef",
                    "itemOID": "IT.ADVS.SEX",
                    "orderNumber": 9,
                    "mandatory": "No",
                    "methodOID": "MT.ADVS.SEX"
                  },
                  {
                    "TYPE_NAME": "define2_1_0.ODMcomplexTypeDefinitionItemRef",
                    "itemOID": "IT.ADVS.SAFFL",
                    "orderNumber": 10,
                    "mandatory": "No",
                    "methodOID": "MT.ADVS.SAFFL"
                  },
                  {
                    "TYPE_NAME": "define2_1_0.ODMcomplexTypeDefinitionItemRef",
                    "itemOID": "IT.ADVS.TRTSDT",
                    "orderNumber": 11,
                    "mandatory": "No",
                    "methodOID": "MT.ADVS.TRTSDT"
                  },
                  {
                    "TYPE_NAME": "define2_1_0.ODMcomplexTypeDefinitionItemRef",
                    "itemOID": "IT.ADVS.TRTEDT",
                    "orderNumber": 12,
                    "mandatory": "No",
                    "methodOID": "MT.ADVS.TRTEDT"
                  },
                  {
                    "TYPE_NAME": "define2_1_0.ODMcomplexTypeDefinitionItemRef",
                    "itemOID": "IT.ADVS.TRTP",
                    "orderNumber": 13,
                    "mandatory": "No",
                    "methodOID": "MT.ADVS.TRTP"
                  },
                  {
                    "TYPE_NAME": "define2_1_0.ODMcomplexTypeDefinitionItemRef",
                    "itemOID": "IT.ADVS.TRTPN",
                    "orderNumber": 14,
                    "mandatory": "No",
                    "methodOID": "MT.ADVS.TRTPN"
                  },
                  {
                    "TYPE_NAME": "define2_1_0.ODMcomplexTypeDefinitionItemRef",
                    "itemOID": "IT.ADVS.TRTA",
                    "orderNumber": 15,
                    "mandatory": "No",
                    "methodOID": "MT.ADVS.TRTA"
                  },
                  {
                    "TYPE_NAME": "define2_1_0.ODMcomplexTypeDefinitionItemRef",
                    "itemOID": "IT.ADVS.TRTAN",
                    "orderNumber": 16,
                    "mandatory": "No",
                    "methodOID": "MT.ADVS.TRTAN"
                  },
                  {
                    "TYPE_NAME": "define2_1_0.ODMcomplexTypeDefinitionItemRef",
                    "itemOID": "IT.ADVS.PARAMCD",
                    "orderNumber": 17,
                    "mandatory": "No",
                    "keySequence": 2,
                    "methodOID": "MT.ADVS.PARAMCD"
                  },
                  {
                    "TYPE_NAME": "define2_1_0.ODMcomplexTypeDefinitionItemRef",
                    "itemOID": "IT.ADVS.PARAM",
                    "orderNumber": 18,
                    "mandatory": "No"
                  },
                  {
                    "TYPE_NAME": "define2_1_0.ODMcomplexTypeDefinitionItemRef",
                    "itemOID": "IT.ADVS.PARAMN",
                    "orderNumber": 19,
                    "mandatory": "No",
                    "methodOID": "MT.ADVS.PARAMN"
                  },
                  {
                    "TYPE_NAME": "define2_1_0.ODMcomplexTypeDefinitionItemRef",
                    "itemOID": "IT.ADVS.ADT",
                    "orderNumber": 20,
                    "mandatory": "No",
                    "methodOID": "MT.ADVS.ADT"
                  },
                  {
                    "TYPE_NAME": "define2_1_0.ODMcomplexTypeDefinitionItemRef",
                    "itemOID": "IT.ADVS.ADY",
                    "orderNumber": 21,
                    "mandatory": "No",
                    "methodOID": "MT.ADVS.ADY"
                  },
                  {
                    "TYPE_NAME": "define2_1_0.ODMcomplexTypeDefinitionItemRef",
                    "itemOID": "IT.ADVS.ATPTN",
                    "orderNumber": 22,
                    "mandatory": "No",
                    "methodOID": "MT.ADVS.ATPTN"
                  },
                  {
                    "TYPE_NAME": "define2_1_0.ODMcomplexTypeDefinitionItemRef",
                    "itemOID": "IT.ADVS.ATPT",
                    "orderNumber": 23,
                    "mandatory": "No",
                    "keySequence": 4,
                    "methodOID": "MT.ADVS.ATPT"
                  },
                  {
                    "TYPE_NAME": "define2_1_0.ODMcomplexTypeDefinitionItemRef",
                    "itemOID": "IT.ADVS.AVISIT",
                    "orderNumber": 24,
                    "mandatory": "No",
                    "keySequence": 3,
                    "methodOID": "MT.ADVS.AVISIT"
                  },
                  {
                    "TYPE_NAME": "define2_1_0.ODMcomplexTypeDefinitionItemRef",
                    "itemOID": "IT.ADVS.AVISITN",
                    "orderNumber": 25,
                    "mandatory": "No",
                    "methodOID": "MT.ADVS.AVISITN"
                  },
                  {
                    "TYPE_NAME": "define2_1_0.ODMcomplexTypeDefinitionItemRef",
                    "itemOID": "IT.ADVS.AVAL",
                    "orderNumber": 26,
                    "mandatory": "No",
                    "methodOID": "MT.ADVS.AVAL"
                  },
                  {
                    "TYPE_NAME": "define2_1_0.ODMcomplexTypeDefinitionItemRef",
                    "itemOID": "IT.ADVS.BASE",
                    "orderNumber": 27,
                    "mandatory": "No",
                    "methodOID": "MT.ADVS.BASE"
                  },
                  {
                    "TYPE_NAME": "define2_1_0.ODMcomplexTypeDefinitionItemRef",
                    "itemOID": "IT.ADVS.BASETYPE",
                    "orderNumber": 28,
                    "mandatory": "No",
                    "methodOID": "MT.ADVS.BASETYPE"
                  },
                  {
                    "TYPE_NAME": "define2_1_0.ODMcomplexTypeDefinitionItemRef",
                    "itemOID": "IT.ADVS.CHG",
                    "orderNumber": 29,
                    "mandatory": "No",
                    "methodOID": "MT.ADVS.CHG"
                  },
                  {
                    "TYPE_NAME": "define2_1_0.ODMcomplexTypeDefinitionItemRef",
                    "itemOID": "IT.ADVS.PCHG",
                    "orderNumber": 30,
                    "mandatory": "No",
                    "methodOID": "MT.ADVS.PCHG"
                  },
                  {
                    "TYPE_NAME": "define2_1_0.ODMcomplexTypeDefinitionItemRef",
                    "itemOID": "IT.ADVS.VISITNUM",
                    "orderNumber": 31,
                    "mandatory": "No",
                    "methodOID": "MT.ADVS.VISITNUM"
                  },
                  {
                    "TYPE_NAME": "define2_1_0.ODMcomplexTypeDefinitionItemRef",
                    "itemOID": "IT.ADVS.VISIT",
                    "orderNumber": 32,
                    "mandatory": "No",
                    "methodOID": "MT.ADVS.VISIT"
                  },
                  {
                    "TYPE_NAME": "define2_1_0.ODMcomplexTypeDefinitionItemRef",
                    "itemOID": "IT.ADVS.VSSEQ",
                    "orderNumber": 33,
                    "mandatory": "No",
                    "methodOID": "MT.ADVS.VSSEQ"
                  },
                  {
                    "TYPE_NAME": "define2_1_0.ODMcomplexTypeDefinitionItemRef",
                    "itemOID": "IT.ADVS.ANL01FL",
                    "orderNumber": 34,
                    "mandatory": "No",
                    "methodOID": "MT.ADVS.ANL01FL"
                  },
                  {
                    "TYPE_NAME": "define2_1_0.ODMcomplexTypeDefinitionItemRef",
                    "itemOID": "IT.ADVS.ABLFL",
                    "orderNumber": 35,
                    "mandatory": "No",
                    "methodOID": "MT.ADVS.ABLFL"
                  }
                ]
              }
            ],
            "itemDef": [
              {
                "TYPE_NAME": "define2_1_0.ODMcomplexTypeDefinitionItemDef",
                "oid": "IT.ADADAS.STUDYID",
                "name": "STUDYID",
                "dataType": "text",
                "length": 12,
                "sasFieldName": "STUDYID",
                "description": {
                  "TYPE_NAME": "define2_1_0.ODMcomplexTypeDefinitionDescription",
                  "translatedText": [
                    {
                      "TYPE_NAME": "define2_1_0.ODMcomplexTypeDefinitionTranslatedText",
                      "lang": "en",
                      "value": "Study Identifier"
                    }
                  ]
                }
              },
              {
                "TYPE_NAME": "define2_1_0.ODMcomplexTypeDefinitionItemDef",
                "oid": "IT.ADADAS.SITEID",
                "name": "SITEID",
                "dataType": "text",
                "length": 3,
                "sasFieldName": "SITEID",
                "description": {
                  "TYPE_NAME": "define2_1_0.ODMcomplexTypeDefinitionDescription",
                  "translatedText": [
                    {
                      "TYPE_NAME": "define2_1_0.ODMcomplexTypeDefinitionTranslatedText",
                      "lang": "en",
                      "value": "Study Site Identifier"
                    }
                  ]
                }
              },
              {
                "TYPE_NAME": "define2_1_0.ODMcomplexTypeDefinitionItemDef",
                "oid": "IT.ADADAS.SITEGR1",
                "name": "SITEGR1",
                "dataType": "text",
                "length": 3,
                "sasFieldName": "SITEGR1",
                "description": {
                  "TYPE_NAME": "define2_1_0.ODMcomplexTypeDefinitionDescription",
                  "translatedText": [
                    {
                      "TYPE_NAME": "define2_1_0.ODMcomplexTypeDefinitionTranslatedText",
                      "lang": "en",
                      "value": "Pooled Site Group 1"
                    }
                  ]
                }
              },
              {
                "TYPE_NAME": "define2_1_0.ODMcomplexTypeDefinitionItemDef",
                "oid": "IT.ADADAS.USUBJID",
                "name": "USUBJID",
                "dataType": "text",
                "length": 11,
                "sasFieldName": "USUBJID",
                "description": {
                  "TYPE_NAME": "define2_1_0.ODMcomplexTypeDefinitionDescription",
                  "translatedText": [
                    {
                      "TYPE_NAME": "define2_1_0.ODMcomplexTypeDefinitionTranslatedText",
                      "lang": "en",
                      "value": "Unique Subject Identifier"
                    }
                  ]
                }
              },
              {
                "TYPE_NAME": "define2_1_0.ODMcomplexTypeDefinitionItemDef",
                "oid": "IT.ADADAS.TRTSDT",
                "name": "TRTSDT",
                "dataType": "integer",
                "length": 8,
                "sasFieldName": "TRTSDT",
                "description": {
                  "TYPE_NAME": "define2_1_0.ODMcomplexTypeDefinitionDescription",
                  "translatedText": [
                    {
                      "TYPE_NAME": "define2_1_0.ODMcomplexTypeDefinitionTranslatedText",
                      "lang": "en",
                      "value": "Date of First Exposure to Treatment"
                    }
                  ]
                }
              },
              {
                "TYPE_NAME": "define2_1_0.ODMcomplexTypeDefinitionItemDef",
                "oid": "IT.ADADAS.TRTEDT",
                "name": "TRTEDT",
                "dataType": "integer",
                "length": 8,
                "sasFieldName": "TRTEDT",
                "description": {
                  "TYPE_NAME": "define2_1_0.ODMcomplexTypeDefinitionDescription",
                  "translatedText": [
                    {
                      "TYPE_NAME": "define2_1_0.ODMcomplexTypeDefinitionTranslatedText",
                      "lang": "en",
                      "value": "Date of Last Exposure to Treatment"
                    }
                  ]
                }
              },
              {
                "TYPE_NAME": "define2_1_0.ODMcomplexTypeDefinitionItemDef",
                "oid": "IT.ADADAS.TRTP",
                "name": "TRTP",
                "dataType": "text",
                "length": 20,
                "sasFieldName": "TRTP",
                "description": {
                  "TYPE_NAME": "define2_1_0.ODMcomplexTypeDefinitionDescription",
                  "translatedText": [
                    {
                      "TYPE_NAME": "define2_1_0.ODMcomplexTypeDefinitionTranslatedText",
                      "lang": "en",
                      "value": "Planned Treatment"
                    }
                  ]
                },
                "codeListRef": {
                  "TYPE_NAME": "define2_1_0.ODMcomplexTypeDefinitionCodeListRef",
                  "codeListOID": "CL.ARM"
                }
              },
              {
                "TYPE_NAME": "define2_1_0.ODMcomplexTypeDefinitionItemDef",
                "oid": "IT.ADADAS.TRTPN",
                "name": "TRTPN",
                "dataType": "integer",
                "length": 8,
                "sasFieldName": "TRTPN",
                "description": {
                  "TYPE_NAME": "define2_1_0.ODMcomplexTypeDefinitionDescription",
                  "translatedText": [
                    {
                      "TYPE_NAME": "define2_1_0.ODMcomplexTypeDefinitionTranslatedText",
                      "lang": "en",
                      "value": "Planned Treatment (N)"
                    }
                  ]
                },
                "codeListRef": {
                  "TYPE_NAME": "define2_1_0.ODMcomplexTypeDefinitionCodeListRef",
                  "codeListOID": "CL.ARMN"
                }
              },
              {
                "TYPE_NAME": "define2_1_0.ODMcomplexTypeDefinitionItemDef",
                "oid": "IT.ADADAS.AGE",
                "name": "AGE",
                "dataType": "integer",
                "length": 8,
                "sasFieldName": "AGE",
                "description": {
                  "TYPE_NAME": "define2_1_0.ODMcomplexTypeDefinitionDescription",
                  "translatedText": [
                    {
                      "TYPE_NAME": "define2_1_0.ODMcomplexTypeDefinitionTranslatedText",
                      "lang": "en",
                      "value": "Age"
                    }
                  ]
                }
              },
              {
                "TYPE_NAME": "define2_1_0.ODMcomplexTypeDefinitionItemDef",
                "oid": "IT.ADADAS.AGEGR1",
                "name": "AGEGR1",
                "dataType": "text",
                "length": 5,
                "sasFieldName": "AGEGR1",
                "description": {
                  "TYPE_NAME": "define2_1_0.ODMcomplexTypeDefinitionDescription",
                  "translatedText": [
                    {
                      "TYPE_NAME": "define2_1_0.ODMcomplexTypeDefinitionTranslatedText",
                      "lang": "en",
                      "value": "Pooled Age Group 1"
                    }
                  ]
                },
                "codeListRef": {
                  "TYPE_NAME": "define2_1_0.ODMcomplexTypeDefinitionCodeListRef",
                  "codeListOID": "CL.AGEGR1"
                }
              },
              {
                "TYPE_NAME": "define2_1_0.ODMcomplexTypeDefinitionItemDef",
                "oid": "IT.ADADAS.AGEGR1N",
                "name": "AGEGR1N",
                "dataType": "integer",
                "length": 8,
                "sasFieldName": "AGEGR1N",
                "description": {
                  "TYPE_NAME": "define2_1_0.ODMcomplexTypeDefinitionDescription",
                  "translatedText": [
                    {
                      "TYPE_NAME": "define2_1_0.ODMcomplexTypeDefinitionTranslatedText",
                      "lang": "en",
                      "value": "Pooled Age Group 1 (N)"
                    }
                  ]
                },
                "codeListRef": {
                  "TYPE_NAME": "define2_1_0.ODMcomplexTypeDefinitionCodeListRef",
                  "codeListOID": "CL.AGEGR1N"
                }
              },
              {
                "TYPE_NAME": "define2_1_0.ODMcomplexTypeDefinitionItemDef",
                "oid": "IT.ADADAS.RACE",
                "name": "RACE",
                "dataType": "text",
                "length": 32,
                "sasFieldName": "RACE",
                "description": {
                  "TYPE_NAME": "define2_1_0.ODMcomplexTypeDefinitionDescription",
                  "translatedText": [
                    {
                      "TYPE_NAME": "define2_1_0.ODMcomplexTypeDefinitionTranslatedText",
                      "lang": "en",
                      "value": "Race"
                    }
                  ]
                },
                "codeListRef": {
                  "TYPE_NAME": "define2_1_0.ODMcomplexTypeDefinitionCodeListRef",
                  "codeListOID": "CL.RACE"
                }
              },
              {
                "TYPE_NAME": "define2_1_0.ODMcomplexTypeDefinitionItemDef",
                "oid": "IT.ADADAS.RACEN",
                "name": "RACEN",
                "dataType": "integer",
                "length": 8,
                "sasFieldName": "RACEN",
                "description": {
                  "TYPE_NAME": "define2_1_0.ODMcomplexTypeDefinitionDescription",
                  "translatedText": [
                    {
                      "TYPE_NAME": "define2_1_0.ODMcomplexTypeDefinitionTranslatedText",
                      "lang": "en",
                      "value": "Race (N)"
                    }
                  ]
                },
                "codeListRef": {
                  "TYPE_NAME": "define2_1_0.ODMcomplexTypeDefinitionCodeListRef",
                  "codeListOID": "CL.RACEN"
                }
              },
              {
                "TYPE_NAME": "define2_1_0.ODMcomplexTypeDefinitionItemDef",
                "oid": "IT.ADADAS.SEX",
                "name": "SEX",
                "dataType": "text",
                "length": 1,
                "sasFieldName": "SEX",
                "description": {
                  "TYPE_NAME": "define2_1_0.ODMcomplexTypeDefinitionDescription",
                  "translatedText": [
                    {
                      "TYPE_NAME": "define2_1_0.ODMcomplexTypeDefinitionTranslatedText",
                      "lang": "en",
                      "value": "Sex"
                    }
                  ]
                },
                "codeListRef": {
                  "TYPE_NAME": "define2_1_0.ODMcomplexTypeDefinitionCodeListRef",
                  "codeListOID": "CL.SEX"
                }
              },
              {
                "TYPE_NAME": "define2_1_0.ODMcomplexTypeDefinitionItemDef",
                "oid": "IT.ADADAS.ITTFL",
                "name": "ITTFL",
                "dataType": "text",
                "length": 1,
                "sasFieldName": "ITTFL",
                "description": {
                  "TYPE_NAME": "define2_1_0.ODMcomplexTypeDefinitionDescription",
                  "translatedText": [
                    {
                      "TYPE_NAME": "define2_1_0.ODMcomplexTypeDefinitionTranslatedText",
                      "lang": "en",
                      "value": "Intent-to-Treat Population Flag"
                    }
                  ]
                },
                "codeListRef": {
                  "TYPE_NAME": "define2_1_0.ODMcomplexTypeDefinitionCodeListRef",
                  "codeListOID": "CL.YN"
                }
              },
              {
                "TYPE_NAME": "define2_1_0.ODMcomplexTypeDefinitionItemDef",
                "oid": "IT.ADADAS.EFFFL",
                "name": "EFFFL",
                "dataType": "text",
                "length": 1,
                "sasFieldName": "EFFFL",
                "description": {
                  "TYPE_NAME": "define2_1_0.ODMcomplexTypeDefinitionDescription",
                  "translatedText": [
                    {
                      "TYPE_NAME": "define2_1_0.ODMcomplexTypeDefinitionTranslatedText",
                      "lang": "en",
                      "value": "Efficacy Population Flag"
                    }
                  ]
                },
                "codeListRef": {
                  "TYPE_NAME": "define2_1_0.ODMcomplexTypeDefinitionCodeListRef",
                  "codeListOID": "CL.YN"
                }
              },
              {
                "TYPE_NAME": "define2_1_0.ODMcomplexTypeDefinitionItemDef",
                "oid": "IT.ADADAS.COMP24FL",
                "name": "COMP24FL",
                "dataType": "text",
                "length": 1,
                "sasFieldName": "COMP24FL",
                "description": {
                  "TYPE_NAME": "define2_1_0.ODMcomplexTypeDefinitionDescription",
                  "translatedText": [
                    {
                      "TYPE_NAME": "define2_1_0.ODMcomplexTypeDefinitionTranslatedText",
                      "lang": "en",
                      "value": "Completers of Week 24 Population Flag"
                    }
                  ]
                },
                "codeListRef": {
                  "TYPE_NAME": "define2_1_0.ODMcomplexTypeDefinitionCodeListRef",
                  "codeListOID": "CL.YN"
                }
              },
              {
                "TYPE_NAME": "define2_1_0.ODMcomplexTypeDefinitionItemDef",
                "oid": "IT.ADADAS.AVISIT",
                "name": "AVISIT",
                "dataType": "text",
                "length": 16,
                "sasFieldName": "AVISIT",
                "description": {
                  "TYPE_NAME": "define2_1_0.ODMcomplexTypeDefinitionDescription",
                  "translatedText": [
                    {
                      "TYPE_NAME": "define2_1_0.ODMcomplexTypeDefinitionTranslatedText",
                      "lang": "en",
                      "value": "Analysis Visit"
                    }
                  ]
                },
                "codeListRef": {
                  "TYPE_NAME": "define2_1_0.ODMcomplexTypeDefinitionCodeListRef",
                  "codeListOID": "CL.AVISIT"
                }
              },
              {
                "TYPE_NAME": "define2_1_0.ODMcomplexTypeDefinitionItemDef",
                "oid": "IT.ADADAS.AVISITN",
                "name": "AVISITN",
                "dataType": "integer",
                "length": 8,
                "sasFieldName": "AVISITN",
                "description": {
                  "TYPE_NAME": "define2_1_0.ODMcomplexTypeDefinitionDescription",
                  "translatedText": [
                    {
                      "TYPE_NAME": "define2_1_0.ODMcomplexTypeDefinitionTranslatedText",
                      "lang": "en",
                      "value": "Analysis Visit (N)"
                    }
                  ]
                },
                "codeListRef": {
                  "TYPE_NAME": "define2_1_0.ODMcomplexTypeDefinitionCodeListRef",
                  "codeListOID": "CL.AVISITN"
                }
              },
              {
                "TYPE_NAME": "define2_1_0.ODMcomplexTypeDefinitionItemDef",
                "oid": "IT.ADADAS.VISIT",
                "name": "VISIT",
                "dataType": "text",
                "length": 19,
                "sasFieldName": "VISIT",
                "description": {
                  "TYPE_NAME": "define2_1_0.ODMcomplexTypeDefinitionDescription",
                  "translatedText": [
                    {
                      "TYPE_NAME": "define2_1_0.ODMcomplexTypeDefinitionTranslatedText",
                      "lang": "en",
                      "value": "Visit Name"
                    }
                  ]
                },
                "codeListRef": {
                  "TYPE_NAME": "define2_1_0.ODMcomplexTypeDefinitionCodeListRef",
                  "codeListOID": "CL.VISIT"
                }
              },
              {
                "TYPE_NAME": "define2_1_0.ODMcomplexTypeDefinitionItemDef",
                "oid": "IT.ADADAS.VISITNUM",
                "name": "VISITNUM",
                "dataType": "float",
                "length": 8,
                "significantDigits": 1,
                "sasFieldName": "VISITNUM",
                "description": {
                  "TYPE_NAME": "define2_1_0.ODMcomplexTypeDefinitionDescription",
                  "translatedText": [
                    {
                      "TYPE_NAME": "define2_1_0.ODMcomplexTypeDefinitionTranslatedText",
                      "lang": "en",
                      "value": "Visit Number"
                    }
                  ]
                },
                "codeListRef": {
                  "TYPE_NAME": "define2_1_0.ODMcomplexTypeDefinitionCodeListRef",
                  "codeListOID": "CL.VISITNUM"
                }
              },
              {
                "TYPE_NAME": "define2_1_0.ODMcomplexTypeDefinitionItemDef",
                "oid": "IT.ADADAS.ADY",
                "name": "ADY",
                "dataType": "integer",
                "length": 8,
                "sasFieldName": "ADY",
                "description": {
                  "TYPE_NAME": "define2_1_0.ODMcomplexTypeDefinitionDescription",
                  "translatedText": [
                    {
                      "TYPE_NAME": "define2_1_0.ODMcomplexTypeDefinitionTranslatedText",
                      "lang": "en",
                      "value": "Analysis Relative Day"
                    }
                  ]
                }
              },
              {
                "TYPE_NAME": "define2_1_0.ODMcomplexTypeDefinitionItemDef",
                "oid": "IT.ADADAS.ADT",
                "name": "ADT",
                "dataType": "integer",
                "length": 8,
                "sasFieldName": "ADT",
                "description": {
                  "TYPE_NAME": "define2_1_0.ODMcomplexTypeDefinitionDescription",
                  "translatedText": [
                    {
                      "TYPE_NAME": "define2_1_0.ODMcomplexTypeDefinitionTranslatedText",
                      "lang": "en",
                      "value": "Analysis Date"
                    }
                  ]
                }
              },
              {
                "TYPE_NAME": "define2_1_0.ODMcomplexTypeDefinitionItemDef",
                "oid": "IT.ADADAS.PARAM",
                "name": "PARAM",
                "dataType": "text",
                "length": 100,
                "sasFieldName": "PARAM",
                "description": {
                  "TYPE_NAME": "define2_1_0.ODMcomplexTypeDefinitionDescription",
                  "translatedText": [
                    {
                      "TYPE_NAME": "define2_1_0.ODMcomplexTypeDefinitionTranslatedText",
                      "lang": "en",
                      "value": "Parameter"
                    }
                  ]
                },
                "codeListRef": {
                  "TYPE_NAME": "define2_1_0.ODMcomplexTypeDefinitionCodeListRef",
                  "codeListOID": "CL.PARAM_ADQSADAS"
                }
              },
              {
                "TYPE_NAME": "define2_1_0.ODMcomplexTypeDefinitionItemDef",
                "oid": "IT.ADADAS.PARAMCD",
                "name": "PARAMCD",
                "dataType": "text",
                "length": 8,
                "sasFieldName": "PARAMCD",
                "description": {
                  "TYPE_NAME": "define2_1_0.ODMcomplexTypeDefinitionDescription",
                  "translatedText": [
                    {
                      "TYPE_NAME": "define2_1_0.ODMcomplexTypeDefinitionTranslatedText",
                      "lang": "en",
                      "value": "Parameter Code"
                    }
                  ]
                },
                "codeListRef": {
                  "TYPE_NAME": "define2_1_0.ODMcomplexTypeDefinitionCodeListRef",
                  "codeListOID": "CL.PARAMCD_ADQSADAS"
                }
              },
              {
                "TYPE_NAME": "define2_1_0.ODMcomplexTypeDefinitionItemDef",
                "oid": "IT.ADADAS.PARAMN",
                "name": "PARAMN",
                "dataType": "integer",
                "length": 8,
                "sasFieldName": "PARAMN",
                "description": {
                  "TYPE_NAME": "define2_1_0.ODMcomplexTypeDefinitionDescription",
                  "translatedText": [
                    {
                      "TYPE_NAME": "define2_1_0.ODMcomplexTypeDefinitionTranslatedText",
                      "lang": "en",
                      "value": "Parameter (N)"
                    }
                  ]
                },
                "codeListRef": {
                  "TYPE_NAME": "define2_1_0.ODMcomplexTypeDefinitionCodeListRef",
                  "codeListOID": "CL.PARAMN_ADQSADAS"
                }
              },
              {
                "TYPE_NAME": "define2_1_0.ODMcomplexTypeDefinitionItemDef",
                "oid": "IT.ADADAS.AVAL",
                "name": "AVAL",
                "dataType": "integer",
                "length": 8,
                "sasFieldName": "AVAL",
                "description": {
                  "TYPE_NAME": "define2_1_0.ODMcomplexTypeDefinitionDescription",
                  "translatedText": [
                    {
                      "TYPE_NAME": "define2_1_0.ODMcomplexTypeDefinitionTranslatedText",
                      "lang": "en",
                      "value": "Analysis Value"
                    }
                  ]
                }
              },
              {
                "TYPE_NAME": "define2_1_0.ODMcomplexTypeDefinitionItemDef",
                "oid": "IT.ADADAS.BASE",
                "name": "BASE",
                "dataType": "integer",
                "length": 8,
                "sasFieldName": "BASE",
                "description": {
                  "TYPE_NAME": "define2_1_0.ODMcomplexTypeDefinitionDescription",
                  "translatedText": [
                    {
                      "TYPE_NAME": "define2_1_0.ODMcomplexTypeDefinitionTranslatedText",
                      "lang": "en",
                      "value": "Baseline Value"
                    }
                  ]
                }
              },
              {
                "TYPE_NAME": "define2_1_0.ODMcomplexTypeDefinitionItemDef",
                "oid": "IT.ADADAS.CHG",
                "name": "CHG",
                "dataType": "integer",
                "length": 8,
                "sasFieldName": "CHG",
                "description": {
                  "TYPE_NAME": "define2_1_0.ODMcomplexTypeDefinitionDescription",
                  "translatedText": [
                    {
                      "TYPE_NAME": "define2_1_0.ODMcomplexTypeDefinitionTranslatedText",
                      "lang": "en",
                      "value": "Baseline Value"
                    }
                  ]
                }
              },
              {
                "TYPE_NAME": "define2_1_0.ODMcomplexTypeDefinitionItemDef",
                "oid": "IT.ADADAS.PCHG",
                "name": "PCHG",
                "dataType": "integer",
                "length": 8,
                "sasFieldName": "PCHG",
                "description": {
                  "TYPE_NAME": "define2_1_0.ODMcomplexTypeDefinitionDescription",
                  "translatedText": [
                    {
                      "TYPE_NAME": "define2_1_0.ODMcomplexTypeDefinitionTranslatedText",
                      "lang": "en",
                      "value": "Percent Change from Baseline"
                    }
                  ]
                }
              },
              {
                "TYPE_NAME": "define2_1_0.ODMcomplexTypeDefinitionItemDef",
                "oid": "IT.ADADAS.ABLFL",
                "name": "ABLFL",
                "dataType": "text",
                "length": 1,
                "sasFieldName": "ABLFL",
                "description": {
                  "TYPE_NAME": "define2_1_0.ODMcomplexTypeDefinitionDescription",
                  "translatedText": [
                    {
                      "TYPE_NAME": "define2_1_0.ODMcomplexTypeDefinitionTranslatedText",
                      "lang": "en",
                      "value": "ABLFL"
                    }
                  ]
                },
                "codeListRef": {
                  "TYPE_NAME": "define2_1_0.ODMcomplexTypeDefinitionCodeListRef",
                  "codeListOID": "CL.Y_BLANK"
                }
              },
              {
                "TYPE_NAME": "define2_1_0.ODMcomplexTypeDefinitionItemDef",
                "oid": "IT.ADADAS.ANL01FL",
                "name": "ANL01FL",
                "dataType": "text",
                "length": 1,
                "sasFieldName": "ANL01FL",
                "description": {
                  "TYPE_NAME": "define2_1_0.ODMcomplexTypeDefinitionDescription",
                  "translatedText": [
                    {
                      "TYPE_NAME": "define2_1_0.ODMcomplexTypeDefinitionTranslatedText",
                      "lang": "en",
                      "value": "Analysis Record Flag 01"
                    }
                  ]
                },
                "codeListRef": {
                  "TYPE_NAME": "define2_1_0.ODMcomplexTypeDefinitionCodeListRef",
                  "codeListOID": "CL.Y_BLANK"
                }
              },
              {
                "TYPE_NAME": "define2_1_0.ODMcomplexTypeDefinitionItemDef",
                "oid": "IT.ADADAS.DTYPE",
                "name": "DTYPE",
                "dataType": "text",
                "length": 7,
                "sasFieldName": "DTYPE",
                "description": {
                  "TYPE_NAME": "define2_1_0.ODMcomplexTypeDefinitionDescription",
                  "translatedText": [
                    {
                      "TYPE_NAME": "define2_1_0.ODMcomplexTypeDefinitionTranslatedText",
                      "lang": "en",
                      "value": "Derivation Type"
                    }
                  ]
                },
                "codeListRef": {
                  "TYPE_NAME": "define2_1_0.ODMcomplexTypeDefinitionCodeListRef",
                  "codeListOID": "CL.DTYPE"
                }
              },
              {
                "TYPE_NAME": "define2_1_0.ODMcomplexTypeDefinitionItemDef",
                "oid": "IT.ADADAS.AWRANGE",
                "name": "AWRANGE",
                "dataType": "text",
                "length": 9,
                "sasFieldName": "AWRANGE",
                "description": {
                  "TYPE_NAME": "define2_1_0.ODMcomplexTypeDefinitionDescription",
                  "translatedText": [
                    {
                      "TYPE_NAME": "define2_1_0.ODMcomplexTypeDefinitionTranslatedText",
                      "lang": "en",
                      "value": "Analysis Window Valid Relative Range"
                    }
                  ]
                }
              },
              {
                "TYPE_NAME": "define2_1_0.ODMcomplexTypeDefinitionItemDef",
                "oid": "IT.ADADAS.AWTARGET",
                "name": "AWTARGET",
                "dataType": "integer",
                "length": 8,
                "sasFieldName": "AWTARGET",
                "description": {
                  "TYPE_NAME": "define2_1_0.ODMcomplexTypeDefinitionDescription",
                  "translatedText": [
                    {
                      "TYPE_NAME": "define2_1_0.ODMcomplexTypeDefinitionTranslatedText",
                      "lang": "en",
                      "value": "Analysis Window Target"
                    }
                  ]
                }
              },
              {
                "TYPE_NAME": "define2_1_0.ODMcomplexTypeDefinitionItemDef",
                "oid": "IT.ADADAS.AWTDIFF",
                "name": "AWTDIFF",
                "dataType": "integer",
                "length": 8,
                "sasFieldName": "AWTDIFF",
                "description": {
                  "TYPE_NAME": "define2_1_0.ODMcomplexTypeDefinitionDescription",
                  "translatedText": [
                    {
                      "TYPE_NAME": "define2_1_0.ODMcomplexTypeDefinitionTranslatedText",
                      "lang": "en",
                      "value": "Analysis Window Diff from Target"
                    }
                  ]
                }
              },
              {
                "TYPE_NAME": "define2_1_0.ODMcomplexTypeDefinitionItemDef",
                "oid": "IT.ADADAS.AWLO",
                "name": "AWLO",
                "dataType": "integer",
                "length": 8,
                "sasFieldName": "AWLO",
                "description": {
                  "TYPE_NAME": "define2_1_0.ODMcomplexTypeDefinitionDescription",
                  "translatedText": [
                    {
                      "TYPE_NAME": "define2_1_0.ODMcomplexTypeDefinitionTranslatedText",
                      "lang": "en",
                      "value": "Analysis Window Beginning Timepoint"
                    }
                  ]
                }
              },
              {
                "TYPE_NAME": "define2_1_0.ODMcomplexTypeDefinitionItemDef",
                "oid": "IT.ADADAS.AWHI",
                "name": "AWHI",
                "dataType": "integer",
                "length": 8,
                "sasFieldName": "AWHI",
                "description": {
                  "TYPE_NAME": "define2_1_0.ODMcomplexTypeDefinitionDescription",
                  "translatedText": [
                    {
                      "TYPE_NAME": "define2_1_0.ODMcomplexTypeDefinitionTranslatedText",
                      "lang": "en",
                      "value": "Analysis Window Ending Timepoint"
                    }
                  ]
                }
              },
              {
                "TYPE_NAME": "define2_1_0.ODMcomplexTypeDefinitionItemDef",
                "oid": "IT.ADADAS.AWU",
                "name": "AWU",
                "dataType": "text",
                "length": 4,
                "sasFieldName": "AWU",
                "description": {
                  "TYPE_NAME": "define2_1_0.ODMcomplexTypeDefinitionDescription",
                  "translatedText": [
                    {
                      "TYPE_NAME": "define2_1_0.ODMcomplexTypeDefinitionTranslatedText",
                      "lang": "en",
                      "value": "Analysis Window Unit"
                    }
                  ]
                },
                "codeListRef": {
                  "TYPE_NAME": "define2_1_0.ODMcomplexTypeDefinitionCodeListRef",
                  "codeListOID": "CL.AWU"
                }
              },
              {
                "TYPE_NAME": "define2_1_0.ODMcomplexTypeDefinitionItemDef",
                "oid": "IT.ADADAS.QSSEQ",
                "name": "QSSEQ",
                "dataType": "integer",
                "length": 8,
                "sasFieldName": "QSSEQ",
                "description": {
                  "TYPE_NAME": "define2_1_0.ODMcomplexTypeDefinitionDescription",
                  "translatedText": [
                    {
                      "TYPE_NAME": "define2_1_0.ODMcomplexTypeDefinitionTranslatedText",
                      "lang": "en",
                      "value": "Sequence Number"
                    }
                  ]
                }
              },
              {
                "TYPE_NAME": "define2_1_0.ODMcomplexTypeDefinitionItemDef",
                "oid": "IT.ADAE.STUDYID",
                "name": "STUDYID",
                "dataType": "text",
                "length": 12,
                "sasFieldName": "STUDYID",
                "description": {
                  "TYPE_NAME": "define2_1_0.ODMcomplexTypeDefinitionDescription",
                  "translatedText": [
                    {
                      "TYPE_NAME": "define2_1_0.ODMcomplexTypeDefinitionTranslatedText",
                      "lang": "en",
                      "value": "Study Identifier"
                    }
                  ]
                }
              },
              {
                "TYPE_NAME": "define2_1_0.ODMcomplexTypeDefinitionItemDef",
                "oid": "IT.ADAE.SITEID",
                "name": "SITEID",
                "dataType": "text",
                "length": 3,
                "sasFieldName": "SITEID",
                "description": {
                  "TYPE_NAME": "define2_1_0.ODMcomplexTypeDefinitionDescription",
                  "translatedText": [
                    {
                      "TYPE_NAME": "define2_1_0.ODMcomplexTypeDefinitionTranslatedText",
                      "lang": "en",
                      "value": "Study Site Identifier"
                    }
                  ]
                }
              },
              {
                "TYPE_NAME": "define2_1_0.ODMcomplexTypeDefinitionItemDef",
                "oid": "IT.ADAE.USUBJID",
                "name": "USUBJID",
                "dataType": "text",
                "length": 11,
                "sasFieldName": "USUBJID",
                "description": {
                  "TYPE_NAME": "define2_1_0.ODMcomplexTypeDefinitionDescription",
                  "translatedText": [
                    {
                      "TYPE_NAME": "define2_1_0.ODMcomplexTypeDefinitionTranslatedText",
                      "lang": "en",
                      "value": "Unique Subject Identifier"
                    }
                  ]
                }
              },
              {
                "TYPE_NAME": "define2_1_0.ODMcomplexTypeDefinitionItemDef",
                "oid": "IT.ADAE.TRTA",
                "name": "TRTA",
                "dataType": "text",
                "length": 20,
                "sasFieldName": "TRTA",
                "description": {
                  "TYPE_NAME": "define2_1_0.ODMcomplexTypeDefinitionDescription",
                  "translatedText": [
                    {
                      "TYPE_NAME": "define2_1_0.ODMcomplexTypeDefinitionTranslatedText",
                      "lang": "en",
                      "value": "Actual Treatment"
                    }
                  ]
                },
                "codeListRef": {
                  "TYPE_NAME": "define2_1_0.ODMcomplexTypeDefinitionCodeListRef",
                  "codeListOID": "CL.ARM"
                }
              },
              {
                "TYPE_NAME": "define2_1_0.ODMcomplexTypeDefinitionItemDef",
                "oid": "IT.ADAE.TRTAN",
                "name": "TRTAN",
                "dataType": "integer",
                "length": 8,
                "sasFieldName": "TRTAN",
                "description": {
                  "TYPE_NAME": "define2_1_0.ODMcomplexTypeDefinitionDescription",
                  "translatedText": [
                    {
                      "TYPE_NAME": "define2_1_0.ODMcomplexTypeDefinitionTranslatedText",
                      "lang": "en",
                      "value": "Actual Treatment (N)"
                    }
                  ]
                },
                "codeListRef": {
                  "TYPE_NAME": "define2_1_0.ODMcomplexTypeDefinitionCodeListRef",
                  "codeListOID": "CL.ARMN"
                }
              },
              {
                "TYPE_NAME": "define2_1_0.ODMcomplexTypeDefinitionItemDef",
                "oid": "IT.ADAE.AGE",
                "name": "AGE",
                "dataType": "integer",
                "length": 8,
                "sasFieldName": "AGE",
                "description": {
                  "TYPE_NAME": "define2_1_0.ODMcomplexTypeDefinitionDescription",
                  "translatedText": [
                    {
                      "TYPE_NAME": "define2_1_0.ODMcomplexTypeDefinitionTranslatedText",
                      "lang": "en",
                      "value": "Age"
                    }
                  ]
                }
              },
              {
                "TYPE_NAME": "define2_1_0.ODMcomplexTypeDefinitionItemDef",
                "oid": "IT.ADAE.AGEGR1",
                "name": "AGEGR1",
                "dataType": "text",
                "length": 5,
                "sasFieldName": "AGEGR1",
                "description": {
                  "TYPE_NAME": "define2_1_0.ODMcomplexTypeDefinitionDescription",
                  "translatedText": [
                    {
                      "TYPE_NAME": "define2_1_0.ODMcomplexTypeDefinitionTranslatedText",
                      "lang": "en",
