{
  "@context": "http://localhost:4000/define_spec_context#",
  "oid": "CDISC.ADaM.2.1",
  "metaDataVersionDescription": "Study CDISCPILOT01, Data Definitions",
  "metaDataVersionName": "Study CDISCPILOT01, Data Definitions",
  "studyDescription": "CDISCPILOT01 Data Definition",
  "studyName": "CDISCPILOT01",
  "studyProtocol": "CDISCPILOT01",
  "codeList": {
    "ADLBCAT": [
      {
        "dataType": "text",
        "codeListItem": {
          "CHEM": {
            "decode": {
              "schema:PropertyValue": {
                "lang": "en",
                "value": "Chemistry"
              }
            },
            "rank": 1
          },
          "HEM": {
            "decode": {
              "schema:PropertyValue": {
                "lang": "en",
                "value": "Hematology"
              }
            },
            "rank": 2
          },
          "HYLAW": {
            "decode": {
              "schema:PropertyValue": {
                "lang": "en",
                "value": "Hy's Law"
              }
            },
            "rank": 3
          }
        },
        "name": "ADLBCAT"
      }
    ],
    "AECAUS": [
      {
        "dataType": "text",
        "codeListItem": {
          "NONE": {
            "decode": {
              "schema:PropertyValue": {
                "lang": "en",
                "value": "NONE"
              }
            },
            "rank": 1
          },
          "POSSIBLE": {
            "decode": {
              "schema:PropertyValue": {
                "lang": "en",
                "value": "POSSIBLE"
              }
            },
            "rank": 2
          },
          "PROBABLE": {
            "decode": {
              "schema:PropertyValue": {
                "lang": "en",
                "value": "PROBABLE"
              }
            },
            "rank": 3
          },
          "REMOTE": {
            "decode": {
              "schema:PropertyValue": {
                "lang": "en",
                "value": "REMOTE"
              }
            },
            "rank": 4
          }
        },
        "name": "AECAUS"
      }
    ],
    "AGEGR1": [
      {
        "dataType": "text",
        "codeListItem": {
          "<65": {
            "decode": {
              "schema:PropertyValue": {
                "lang": "en",
                "value": "<65"
              }
            },
            "rank": 1
          },
          "65-80": {
            "decode": {
              "schema:PropertyValue": {
                "lang": "en",
                "value": "65-80"
              }
            },
            "rank": 2
          },
          ">80": {
            "decode": {
              "schema:PropertyValue": {
                "lang": "en",
                "value": ">80"
              }
            },
            "rank": 3
          }
        },
        "name": "AGEGR1"
      }
    ],
    "AGEGR1N": [
      {
        "dataType": "integer",
        "codeListItem": {
          "1": {
            "decode": {
              "schema:PropertyValue": {
                "lang": "en",
                "value": "<65"
              }
            },
            "rank": 1
          },
          "2": {
            "decode": {
              "schema:PropertyValue": {
                "lang": "en",
                "value": "65-80"
              }
            },
            "rank": 2
          },
          "3": {
            "decode": {
              "schema:PropertyValue": {
                "lang": "en",
                "value": ">80"
              }
            },
            "rank": 3
          }
        },
        "name": "AGEGR1N"
      }
    ],
    "AGEU": [
      {
        "dataType": "text",
        "codeListItem": {
          "YEARS": {
            "decode": {
              "schema:PropertyValue": {
                "lang": "en",
                "value": "YEARS"
              }
            },
            "rank": 1
          }
        },
        "name": "AGEU"
      }
    ],
    "ARM": [
      {
        "dataType": "text",
        "codeListItem": {
          "Placebo": {
            "decode": {
              "schema:PropertyValue": {
                "lang": "en",
                "value": "Placebo"
              }
            },
            "rank": 1
          },
          "Xanomeline Low Dose": {
            "decode": {
              "schema:PropertyValue": {
                "lang": "en",
                "value": "Xanomeline Low Dose"
              }
            },
            "rank": 2
          },
          "Xanomeline High Dose": {
            "decode": {
              "schema:PropertyValue": {
                "lang": "en",
                "value": "Xanomeline High Dose"
              }
            },
            "rank": 3
          }
        },
        "name": "ARM"
      }
    ],
    "ARMN": [
      {
        "dataType": "integer",
        "codeListItem": {
          "0": {
            "decode": {
              "schema:PropertyValue": {
                "lang": "en",
                "value": "Placebo"
              }
            },
            "rank": 1
          },
          "54": {
            "decode": {
              "schema:PropertyValue": {
                "lang": "en",
                "value": "Xanomeline Low Dose"
              }
            },
            "rank": 2
          },
          "81": {
            "decode": {
              "schema:PropertyValue": {
                "lang": "en",
                "value": "Xanomeline High Dose"
              }
            },
            "rank": 3
          }
        },
        "name": "ARMN"
      }
    ],
    "ATPT": [
      {
        "dataType": "text",
        "codeListItem": {
          "AFTER LYING DOWN FOR 5 MINUTES": {
            "decode": {
              "schema:PropertyValue": {
                "lang": "en",
                "value": "AFTER LYING DOWN FOR 5 MINUTES"
              }
            },
            "rank": 1
          },
          "AFTER STANDING FOR 1 MINUTE": {
            "decode": {
              "schema:PropertyValue": {
                "lang": "en",
                "value": "AFTER STANDING FOR 1 MINUTE"
              }
            },
            "rank": 2
          },
          "AFTER STANDING FOR 3 MINUTES": {
            "decode": {
              "schema:PropertyValue": {
                "lang": "en",
                "value": "AFTER STANDING FOR 3 MINUTES"
              }
            },
            "rank": 3
          }
        },
        "name": "ATPT"
      }
    ],
    "AVISIT": [
      {
        "dataType": "text",
        "codeListItem": {
          "Baseline": {
            "decode": {
              "schema:PropertyValue": {
                "lang": "en",
                "value": "Baseline"
              }
            },
            "rank": 1
          },
          "Week 2": {
            "decode": {
              "schema:PropertyValue": {
                "lang": "en",
                "value": "Week 2"
              }
            },
            "rank": 2
          },
          "Week 4": {
            "decode": {
              "schema:PropertyValue": {
                "lang": "en",
                "value": "Week 4"
              }
            },
            "rank": 3
          },
          "Week 6": {
            "decode": {
              "schema:PropertyValue": {
                "lang": "en",
                "value": "Week 6"
              }
            },
            "rank": 4
          },
          "Week 8": {
            "decode": {
              "schema:PropertyValue": {
                "lang": "en",
                "value": "Week 8"
              }
            },
            "rank": 5
          },
          "Week 10": {
            "decode": {
              "schema:PropertyValue": {
                "lang": "en",
                "value": "Week 10"
              }
            },
            "rank": 6
          },
          "Week 12": {
            "decode": {
              "schema:PropertyValue": {
                "lang": "en",
                "value": "Week 12"
              }
            },
            "rank": 7
          },
          "Week 14": {
            "decode": {
              "schema:PropertyValue": {
                "lang": "en",
                "value": "Week 14"
              }
            },
            "rank": 8
          },
          "Week 16": {
            "decode": {
              "schema:PropertyValue": {
                "lang": "en",
                "value": "Week 16"
              }
            },
            "rank": 9
          },
          "Week 18": {
            "decode": {
              "schema:PropertyValue": {
                "lang": "en",
                "value": "Week 18"
              }
            },
            "rank": 10
          },
          "Week 20": {
            "decode": {
              "schema:PropertyValue": {
                "lang": "en",
                "value": "Week 20"
              }
            },
            "rank": 11
          },
          "Week 22": {
            "decode": {
              "schema:PropertyValue": {
                "lang": "en",
                "value": "Week 22"
              }
            },
            "rank": 12
          },
          "Week 24": {
            "decode": {
              "schema:PropertyValue": {
                "lang": "en",
                "value": "Week 24"
              }
            },
            "rank": 13
          },
          "Week 26": {
            "decode": {
              "schema:PropertyValue": {
                "lang": "en",
                "value": "Week 26"
              }
            },
            "rank": 14
          },
          "Weeks 4-24": {
            "decode": {
              "schema:PropertyValue": {
                "lang": "en",
                "value": "Weeks 4-24"
              }
            },
            "rank": 15
          },
          "End of Treatment": {
            "decode": {
              "schema:PropertyValue": {
                "lang": "en",
                "value": "End of Treatment"
              }
            },
            "rank": 16
          }
        },
        "name": "AVISIT"
      }
    ],
    "AVISITN": [
      {
        "dataType": "integer",
        "codeListItem": {
          "0": {
            "decode": {
              "schema:PropertyValue": {
                "lang": "en",
                "value": "Baseline"
              }
            },
            "rank": 1
          },
          "2": {
            "decode": {
              "schema:PropertyValue": {
                "lang": "en",
                "value": "Week 2"
              }
            },
            "rank": 2
          },
          "4": {
            "decode": {
              "schema:PropertyValue": {
                "lang": "en",
                "value": "Week 4"
              }
            },
            "rank": 3
          },
          "6": {
            "decode": {
              "schema:PropertyValue": {
                "lang": "en",
                "value": "Week 6"
              }
            },
            "rank": 4
          },
          "8": {
            "decode": {
              "schema:PropertyValue": {
                "lang": "en",
                "value": "Week 8"
              }
            },
            "rank": 5
          },
          "10": {
            "decode": {
              "schema:PropertyValue": {
                "lang": "en",
                "value": "Week 10"
              }
            },
            "rank": 6
          },
          "12": {
            "decode": {
              "schema:PropertyValue": {
                "lang": "en",
                "value": "Week 12"
              }
            },
            "rank": 7
          },
          "14": {
            "decode": {
              "schema:PropertyValue": {
                "lang": "en",
                "value": "Week 14"
              }
            },
            "rank": 8
          },
          "16": {
            "decode": {
              "schema:PropertyValue": {
                "lang": "en",
                "value": "Week 16"
              }
            },
            "rank": 9
          },
          "18": {
            "decode": {
              "schema:PropertyValue": {
                "lang": "en",
                "value": "Week 18"
              }
            },
            "rank": 10
          },
          "20": {
            "decode": {
              "schema:PropertyValue": {
                "lang": "en",
                "value": "Week 20"
              }
            },
            "rank": 11
          },
          "22": {
            "decode": {
              "schema:PropertyValue": {
                "lang": "en",
                "value": "Week 22"
              }
            },
            "rank": 12
          },
          "24": {
            "decode": {
              "schema:PropertyValue": {
                "lang": "en",
                "value": "Week 24"
              }
            },
            "rank": 13
          },
          "26": {
            "decode": {
              "schema:PropertyValue": {
                "lang": "en",
                "value": "Week 26"
              }
            },
            "rank": 14
          },
          "98": {
            "decode": {
              "schema:PropertyValue": {
                "lang": "en",
                "value": "Weeks 4-24"
              }
            },
            "rank": 15
          },
          "99": {
            "decode": {
              "schema:PropertyValue": {
                "lang": "en",
                "value": "End of Treatment"
              }
            },
            "rank": 16
          }
        },
        "name": "AVISITN"
      }
    ],
    "AWU": [
      {
        "dataType": "text",
        "codeListItem": {
          "DAYS": {
            "decode": {
              "schema:PropertyValue": {
                "lang": "en",
                "value": "DAYS"
              }
            },
            "rank": 1
          }
        },
        "name": "AWU"
      }
    ],
    "BMICAT": [
      {
        "dataType": "text",
        "codeListItem": {
          "<25": {
            "decode": {
              "schema:PropertyValue": {
                "lang": "en",
                "value": "Normal"
              }
            },
            "rank": 1
          },
          "25-<30": {
            "decode": {
              "schema:PropertyValue": {
                "lang": "en",
                "value": "Overweight"
              }
            },
            "rank": 2
          },
          ">=30": {
            "decode": {
              "schema:PropertyValue": {
                "lang": "en",
                "value": "Obese"
              }
            },
            "rank": 3
          }
        },
        "name": "BMICAT"
      }
    ],
    "CENSOR": [
      {
        "dataType": "integer",
        "codeListItem": {
          "0": {
            "decode": {
              "schema:PropertyValue": {
                "lang": "en",
                "value": "Event"
              }
            },
            "rank": 1
          },
          "1": {
            "decode": {
              "schema:PropertyValue": {
                "lang": "en",
                "value": "Censored"
              }
            },
            "rank": 2
          }
        },
        "name": "CENSOR"
      }
    ],
    "DISCCD": [
      {
        "dataType": "text",
        "codeListItem": {
          "COMPLETED": {
            "decode": {
              "schema:PropertyValue": {
                "lang": "en",
                "value": "COMPLETED"
              }
            },
            "rank": 1
          },
          "ADVERSE EVENT": {
            "decode": {
              "schema:PropertyValue": {
                "lang": "en",
                "value": "ADVERSE EVENT"
              }
            },
            "rank": 2
          },
          "DEATH": {
            "decode": {
              "schema:PropertyValue": {
                "lang": "en",
                "value": "DEATH"
              }
            },
            "rank": 3
          },
          "LACK OF EFFICACY": {
            "decode": {
              "schema:PropertyValue": {
                "lang": "en",
                "value": "LACK OF EFFICACY"
              }
            },
            "rank": 4
          },
          "LOST TO FOLLOW-UP": {
            "decode": {
              "schema:PropertyValue": {
                "lang": "en",
                "value": "LOST TO FOLLOW-UP"
              }
            },
            "rank": 5
          },
          "WITHDRAWAL BY SUBJECT": {
            "decode": {
              "schema:PropertyValue": {
                "lang": "en",
                "value": "WITHDRAWAL BY SUBJECT"
              }
            },
            "rank": 6
          },
          "STUDY TERMINATED BY SPONSOR": {
            "decode": {
              "schema:PropertyValue": {
                "lang": "en",
                "value": "STUDY TERMINATED BY SPONSOR"
              }
            },
            "rank": 8
          },
          "PHYSICIAN DECISION": {
            "decode": {
              "schema:PropertyValue": {
                "lang": "en",
                "value": "PHYSICIAN DECISION"
              }
            },
            "rank": 9
          },
          "PROTOCOL VIOLATION": {
            "decode": {
              "schema:PropertyValue": {
                "lang": "en",
                "value": "PROTOCOL VIOLATION"
              }
            },
            "rank": 10
          }
        },
        "name": "DISCCD"
      }
    ],
    "DISCREAS": [
      {
        "dataType": "text",
        "codeListItem": {
          "Completed": {
            "decode": {
              "schema:PropertyValue": {
                "lang": "en",
                "value": "Completed"
              }
            },
            "rank": 1
          },
          "Adverse Event": {
            "decode": {
              "schema:PropertyValue": {
                "lang": "en",
                "value": "Adverse Event"
              }
            },
            "rank": 2
          },
          "Death": {
            "decode": {
              "schema:PropertyValue": {
                "lang": "en",
                "value": "Death"
              }
            },
            "rank": 3
          },
          "I/E Not Met": {
            "decode": {
              "schema:PropertyValue": {
                "lang": "en",
                "value": "I/E Not Met"
              }
            },
            "rank": 4
          },
          "Lack of Efficacy": {
            "decode": {
              "schema:PropertyValue": {
                "lang": "en",
                "value": "Lack of Efficacy"
              }
            },
            "rank": 5
          },
          "Lost to Follow-up": {
            "decode": {
              "schema:PropertyValue": {
                "lang": "en",
                "value": "Lost to Follow-up"
              }
            },
            "rank": 6
          },
          "Physician Decision": {
            "decode": {
              "schema:PropertyValue": {
                "lang": "en",
                "value": "Physician Decision"
              }
            },
            "rank": 7
          },
          "Protocol Violation": {
            "decode": {
              "schema:PropertyValue": {
                "lang": "en",
                "value": "Protocol Violation"
              }
            },
            "rank": 8
          },
          "Sponsor Decision": {
            "decode": {
              "schema:PropertyValue": {
                "lang": "en",
                "value": "Sponsor Decision"
              }
            },
            "rank": 9
          },
          "Withdrew Consent": {
            "decode": {
              "schema:PropertyValue": {
                "lang": "en",
                "value": "Withdrew Consent"
              }
            },
            "rank": 10
          }
        },
        "name": "DISCREAS"
      }
    ],
    "DMY": [
      {
        "dataType": "text",
        "codeListItem": {
          "D": {
            "decode": {
              "schema:PropertyValue": {
                "lang": "en",
                "value": "Day imputed"
              }
            },
            "rank": 1
          }
        },
        "name": "DMY"
      }
    ],
    "DTYPE": [
      {
        "dataType": "text",
        "codeListItem": {
          "LOCF": {
            "decode": {
              "schema:PropertyValue": {
                "lang": "en",
                "value": "Last Observation Carried Forward"
              }
            },
            "rank": 1
          },
          "AVERAGE": {
            "decode": {
              "schema:PropertyValue": {
                "lang": "en",
                "value": "Average"
              }
            },
            "rank": 2
          }
        },
        "name": "DTYPE"
      }
    ],
    "DURDISC": [
      {
        "dataType": "text",
        "codeListItem": {
          "<12": {
            "decode": {
              "schema:PropertyValue": {
                "lang": "en",
                "value": "<12"
              }
            },
            "rank": 1
          },
          ">=12": {
            "decode": {
              "schema:PropertyValue": {
                "lang": "en",
                "value": ">=12"
              }
            },
            "rank": 2
          }
        },
        "name": "DURDISC"
      }
    ],
    "ETHNIC": [
      {
        "dataType": "text",
        "codeListItem": {
          "NOT HISPANIC OR LATINO": {
            "decode": {
              "schema:PropertyValue": {
                "lang": "en",
                "value": "NOT HISPANIC OR LATINO"
              }
            },
            "rank": 1
          },
          "HISPANIC OR LATINO": {
            "decode": {
              "schema:PropertyValue": {
                "lang": "en",
                "value": "HISPANIC OR LATINO"
              }
            },
            "rank": 2
          }
        },
        "name": "ETHNIC"
      }
    ],
    "LBNRIND": [
      {
        "dataType": "text",
        "codeListItem": {
          "LOW": {
            "decode": {
              "schema:PropertyValue": {
                "lang": "en",
                "value": "LOW"
              }
            },
            "rank": 1
          },
          "NORMAL": {
            "decode": {
              "schema:PropertyValue": {
                "lang": "en",
                "value": "NORMAL"
              }
            },
            "rank": 2
          },
          "HIGH": {
            "decode": {
              "schema:PropertyValue": {
                "lang": "en",
                "value": "HIGH"
              }
            },
            "rank": 3
          },
          "ABNORMAL": {
            "decode": {
              "schema:PropertyValue": {
                "lang": "en",
                "value": "ABNORMAL"
              }
            },
            "rank": 4
          }
        },
        "name": "LBNRIND"
      }
    ],
    "LNH": [
      {
        "dataType": "text",
        "codeListItem": {
          "L": {
            "decode": {
              "schema:PropertyValue": {
                "lang": "en",
                "value": "Low"
              }
            },
            "rank": 1
          },
          "H": {
            "decode": {
              "schema:PropertyValue": {
                "lang": "en",
                "value": "High"
              }
            },
            "rank": 3
          }
        },
        "name": "LNH"
      }
    ],
    "OUT": [
      {
        "dataType": "text",
        "codeListItem": {
          "RECOVERED/RESOLVED": {
            "decode": {
              "schema:PropertyValue": {
                "lang": "en",
                "value": "RECOVERED/RESOLVED"
              }
            },
            "rank": 1
          },
          "NOT RECOVERED/NOT RESOLVED": {
            "decode": {
              "schema:PropertyValue": {
                "lang": "en",
                "value": "NOT RECOVERED/NOT RESOLVED"
              }
            },
            "rank": 2
          },
          "FATAL": {
            "decode": {
              "schema:PropertyValue": {
                "lang": "en",
                "value": "FATAL"
              }
            },
            "rank": 3
          }
        },
        "name": "OUT"
      }
    ],
    "PARAMCD_ADLBC": [
      {
        "dataType": "text",
        "codeListItem": {
          "ALB": {
            "decode": {
              "schema:PropertyValue": {
                "lang": "en",
                "value": "Albumin (g/L)"
              }
            },
            "rank": 1
          },
          "ALP": {
            "decode": {
              "schema:PropertyValue": {
                "lang": "en",
                "value": "Alkaline Phosphatase (U/L)"
              }
            },
            "rank": 2
          },
          "ALT": {
            "decode": {
              "schema:PropertyValue": {
                "lang": "en",
                "value": "Alanine Aminotransferase (U/L)"
              }
            },
            "rank": 3
          },
          "AST": {
            "decode": {
              "schema:PropertyValue": {
                "lang": "en",
                "value": "Aspartate Aminotransferase (U/L)"
              }
            },
            "rank": 4
          },
          "BILI": {
            "decode": {
              "schema:PropertyValue": {
                "lang": "en",
                "value": "Bilirubin (umol/L)"
              }
            },
            "rank": 5
          },
          "BUN": {
            "decode": {
              "schema:PropertyValue": {
                "lang": "en",
                "value": "Blood Urea Nitrogen (mmol/L)"
              }
            },
            "rank": 6
          },
          "CA": {
            "decode": {
              "schema:PropertyValue": {
                "lang": "en",
                "value": "Calcium (mmol/L)"
              }
            },
            "rank": 7
          },
          "CHOL": {
            "decode": {
              "schema:PropertyValue": {
                "lang": "en",
                "value": "Cholesterol (mmol/L)"
              }
            },
            "rank": 8
          },
          "CK": {
            "decode": {
              "schema:PropertyValue": {
                "lang": "en",
                "value": "Creatine Kinase (U/L)"
              }
            },
            "rank": 9
          },
          "CL": {
            "decode": {
              "schema:PropertyValue": {
                "lang": "en",
                "value": "Chloride (mmol/L)"
              }
            },
            "rank": 10
          },
          "CREAT": {
            "decode": {
              "schema:PropertyValue": {
                "lang": "en",
                "value": "Creatinine (umol/L)"
              }
            },
            "rank": 11
          },
          "GGT": {
            "decode": {
              "schema:PropertyValue": {
                "lang": "en",
                "value": "Gamma Glutamyl Transferase (U/L)"
              }
            },
            "rank": 12
          },
          "GLUC": {
            "decode": {
              "schema:PropertyValue": {
                "lang": "en",
                "value": "Glucose (mmol/L)"
              }
            },
            "rank": 13
          },
          "K": {
            "decode": {
              "schema:PropertyValue": {
                "lang": "en",
                "value": "Potassium (mmol/L)"
              }
            },
            "rank": 14
          },
          "PHOS": {
            "decode": {
              "schema:PropertyValue": {
                "lang": "en",
                "value": "Phosphate (mmol/L)"
              }
            },
            "rank": 15
          },
          "PROT": {
            "decode": {
              "schema:PropertyValue": {
                "lang": "en",
                "value": "Protein (g/L)"
              }
            },
            "rank": 16
          },
          "SODIUM": {
            "decode": {
              "schema:PropertyValue": {
                "lang": "en",
                "value": "Sodium (mmol/L)"
              }
            },
            "rank": 17
          },
          "URATE": {
            "decode": {
              "schema:PropertyValue": {
                "lang": "en",
                "value": "Urate (umol/L)"
              }
            },
            "rank": 18
          },
          "_ALB": {
            "decode": {
              "schema:PropertyValue": {
                "lang": "en",
                "value": "Albumin (g/L) change from previous visit, relative to normal range"
              }
            },
            "rank": 19
          },
          "_ALP": {
            "decode": {
              "schema:PropertyValue": {
                "lang": "en",
                "value": "Alkaline Phosphatase (U/L) change from previous visit, relative to normal range"
              }
            },
            "rank": 20
          },
          "_ALT": {
            "decode": {
              "schema:PropertyValue": {
                "lang": "en",
                "value": "Alanine Aminotransferase (U/L) change from previous visit, relative to normal range"
              }
            },
            "rank": 21
          },
          "_AST": {
            "decode": {
              "schema:PropertyValue": {
                "lang": "en",
                "value": "Aspartate Aminotransferase (U/L) change from previous visit, relative to normal range"
              }
            },
            "rank": 22
          },
          "_BILI": {
            "decode": {
              "schema:PropertyValue": {
                "lang": "en",
                "value": "Bilirubin (umol/L) change from previous visit, relative to normal range"
              }
            },
            "rank": 23
          },
          "_BUN": {
            "decode": {
              "schema:PropertyValue": {
                "lang": "en",
                "value": "Blood Urea Nitrogen (mmol/L) change from previous visit, relative to normal range"
              }
            },
            "rank": 24
          },
          "_CA": {
            "decode": {
              "schema:PropertyValue": {
                "lang": "en",
                "value": "Calcium (mmol/L) change from previous visit, relative to normal range"
              }
            },
            "rank": 25
          },
          "_CHOL": {
            "decode": {
              "schema:PropertyValue": {
                "lang": "en",
                "value": "Cholesterol (mmol/L) change from previous visit, relative to normal range"
              }
            },
            "rank": 26
          },
          "_CK": {
            "decode": {
              "schema:PropertyValue": {
                "lang": "en",
                "value": "Creatine Kinase (U/L) change from previous visit, relative to normal range"
              }
            },
            "rank": 27
          },
          "_CL": {
            "decode": {
              "schema:PropertyValue": {
                "lang": "en",
                "value": "Chloride (mmol/L) change from previous visit, relative to normal range"
              }
            },
            "rank": 28
          },
          "_CREAT": {
            "decode": {
              "schema:PropertyValue": {
                "lang": "en",
                "value": "Creatinine (umol/L) change from previous visit, relative to normal range"
              }
            },
            "rank": 29
          },
          "_GGT": {
            "decode": {
              "schema:PropertyValue": {
                "lang": "en",
                "value": "Gamma Glutamyl Transferase (U/L) change from previous visit, relative to normal range"
              }
            },
            "rank": 30
          },
          "_GLUC": {
            "decode": {
              "schema:PropertyValue": {
                "lang": "en",
                "value": "Glucose (mmol/L) change from previous visit, relative to normal range"
              }
            },
            "rank": 31
          },
          "_K": {
            "decode": {
              "schema:PropertyValue": {
                "lang": "en",
                "value": "Potassium (mmol/L) change from previous visit, relative to normal range"
              }
            },
            "rank": 32
          },
          "_PHOS": {
            "decode": {
              "schema:PropertyValue": {
                "lang": "en",
                "value": "Phosphate (mmol/L) change from previous visit, relative to normal range"
              }
            },
            "rank": 33
          },
          "_PROT": {
            "decode": {
              "schema:PropertyValue": {
                "lang": "en",
                "value": "Protein (g/L) change from previous visit, relative to normal range"
              }
            },
            "rank": 34
          },
          "_SODIUM": {
            "decode": {
              "schema:PropertyValue": {
                "lang": "en",
                "value": "Sodium (mmol/L) change from previous visit, relative to normal range"
              }
            },
            "rank": 35
          },
          "_URATE": {
            "decode": {
              "schema:PropertyValue": {
                "lang": "en",
                "value": "Urate (umol/L) change from previous visit, relative to normal range"
              }
            },
            "rank": 36
          }
        },
        "name": "PARAMCD_ADLBC"
      }
    ],
    "PARAMCD_ADLBH": [
      {
        "dataType": "text",
        "codeListItem": {
          "ANISO": {
            "decode": {
              "schema:PropertyValue": {
                "lang": "en",
                "value": "Anisocytes"
              }
            },
            "rank": 1
          },
          "BASO": {
            "decode": {
              "schema:PropertyValue": {
                "lang": "en",
                "value": "Basophils (GI/L)"
              }
            },
            "rank": 2
          },
          "EOS": {
            "decode": {
              "schema:PropertyValue": {
                "lang": "en",
                "value": "Eosinophils (GI/L)"
              }
            },
            "rank": 3
          },
          "HCT": {
            "decode": {
              "schema:PropertyValue": {
                "lang": "en",
                "value": "Hematocrit"
              }
            },
            "rank": 4
          },
          "HGB": {
            "decode": {
              "schema:PropertyValue": {
                "lang": "en",
                "value": "Hemoglobin (mmol/L)"
              }
            },
            "rank": 5
          },
          "LYM": {
            "decode": {
              "schema:PropertyValue": {
                "lang": "en",
                "value": "Lymphocytes (GI/L)"
              }
            },
            "rank": 6
          },
          "MACROCY": {
            "decode": {
              "schema:PropertyValue": {
                "lang": "en",
                "value": "Macrocytes"
              }
            },
            "rank": 7
          },
          "MCH": {
            "decode": {
              "schema:PropertyValue": {
                "lang": "en",
                "value": "Ery. Mean Corpuscular Hemoglobin (fmol(Fe))"
              }
            },
            "rank": 8
          },
          "MCHC": {
            "decode": {
              "schema:PropertyValue": {
                "lang": "en",
                "value": "Ery. Mean Corpuscular HGB Concentration (mmol/L)"
              }
            },
            "rank": 9
          },
          "MCV": {
            "decode": {
              "schema:PropertyValue": {
                "lang": "en",
                "value": "Ery. Mean Corpuscular Volume (fL)"
              }
            },
            "rank": 10
          },
          "MICROCY": {
            "decode": {
              "schema:PropertyValue": {
                "lang": "en",
                "value": "Microcytes"
              }
            },
            "rank": 11
          },
          "MONO": {
            "decode": {
              "schema:PropertyValue": {
                "lang": "en",
                "value": "Monocytes (GI/L)"
              }
            },
            "rank": 12
          },
          "PLAT": {
            "decode": {
              "schema:PropertyValue": {
                "lang": "en",
                "value": "Platelet (GI/L)"
              }
            },
            "rank": 13
          },
          "POIKILO": {
            "decode": {
              "schema:PropertyValue": {
                "lang": "en",
                "value": "Poikilocytes"
              }
            },
            "rank": 14
          },
          "POLYCHR": {
            "decode": {
              "schema:PropertyValue": {
                "lang": "en",
                "value": "Polychromasia"
              }
            },
            "rank": 15
          },
          "RBC": {
            "decode": {
              "schema:PropertyValue": {
                "lang": "en",
                "value": "Erythrocytes (TI/L)"
              }
            },
            "rank": 16
          },
          "WBC": {
            "decode": {
              "schema:PropertyValue": {
                "lang": "en",
                "value": "Leukocytes (GI/L)"
              }
            },
            "rank": 17
          },
          "_ANISO": {
            "decode": {
              "schema:PropertyValue": {
                "lang": "en",
                "value": "Anisocytes change from previous visit, relative to normal range"
              }
            },
            "rank": 18
          },
          "_BASO": {
            "decode": {
              "schema:PropertyValue": {
                "lang": "en",
                "value": "Basophils (GI/L) change from previous visit, relative to normal range"
              }
            },
            "rank": 19
          },
          "_EOS": {
            "decode": {
              "schema:PropertyValue": {
                "lang": "en",
                "value": "Eosinophils (GI/L) change from previous visit, relative to normal range"
              }
            },
            "rank": 20
          },
          "_HCT": {
            "decode": {
              "schema:PropertyValue": {
                "lang": "en",
                "value": "Hematocrit change from previous visit, relative to normal range"
              }
            },
            "rank": 21
          },
          "_HGB": {
            "decode": {
              "schema:PropertyValue": {
                "lang": "en",
                "value": "Hemoglobin (mmol/L) change from previous visit, relative to normal range"
              }
            },
            "rank": 22
          },
          "_LYM": {
            "decode": {
              "schema:PropertyValue": {
                "lang": "en",
                "value": "Lymphocytes (GI/L) change from previous visit, relative to normal range"
              }
            },
            "rank": 23
          },
          "_MACROCY": {
            "decode": {
              "schema:PropertyValue": {
                "lang": "en",
                "value": "Macrocytes change from previous visit, relative to normal range"
              }
            },
            "rank": 24
          },
          "_MCH": {
            "decode": {
              "schema:PropertyValue": {
                "lang": "en",
                "value": "Ery. Mean Corpuscular Hemoglobin (fmol(Fe)) change from previous visit, relative to normal range"
              }
            },
            "rank": 25
          },
          "_MCHC": {
            "decode": {
              "schema:PropertyValue": {
                "lang": "en",
                "value": "Ery. Mean Corpuscular HGB Concentration (mmol/L) change from previous visit, relative to normal rang"
              }
            },
            "rank": 26
          },
          "_MCV": {
            "decode": {
              "schema:PropertyValue": {
                "lang": "en",
                "value": "Ery. Mean Corpuscular Volume (fL) change from previous visit, relative to normal range"
              }
            },
            "rank": 27
          },
          "_MICROCY": {
            "decode": {
              "schema:PropertyValue": {
                "lang": "en",
                "value": "Microcytes change from previous visit, relative to normal range"
              }
            },
            "rank": 28
          },
          "_MONO": {
            "decode": {
              "schema:PropertyValue": {
                "lang": "en",
                "value": "Monocytes (GI/L) change from previous visit, relative to normal range"
              }
            },
            "rank": 29
          },
          "_PLAT": {
            "decode": {
              "schema:PropertyValue": {
                "lang": "en",
                "value": "Platelet (GI/L) change from previous visit, relative to normal range"
              }
            },
            "rank": 30
          },
          "_POIKILO": {
            "decode": {
              "schema:PropertyValue": {
                "lang": "en",
                "value": "Poikilocytes change from previous visit, relative to normal range"
              }
            },
            "rank": 31
          },
          "_POLYCHR": {
            "decode": {
              "schema:PropertyValue": {
                "lang": "en",
                "value": "Polychromasia change from previous visit, relative to normal range"
              }
            },
            "rank": 32
          },
          "_RBC": {
            "decode": {
              "schema:PropertyValue": {
                "lang": "en",
                "value": "Erythrocytes (TI/L) change from previous visit, relative to normal range"
              }
            },
            "rank": 33
          },
          "_WBC": {
            "decode": {
              "schema:PropertyValue": {
                "lang": "en",
                "value": "Leukocytes (GI/L) change from previous visit, relative to normal range"
              }
            },
            "rank": 34
          }
        },
        "name": "PARAMCD_ADLBH"
      }
    ],
    "PARAMCD_ADLBHY": [
      {
        "dataType": "text",
        "codeListItem": {
          "ALT": {
            "decode": {
              "schema:PropertyValue": {
                "lang": "en",
                "value": "Alanine Aminotransferase (U/L)"
              }
            },
            "rank": 1
          },
          "AST": {
            "decode": {
              "schema:PropertyValue": {
                "lang": "en",
                "value": "Aspartate Aminotransferase (U/L)"
              }
            },
            "rank": 2
          },
          "BILI": {
            "decode": {
              "schema:PropertyValue": {
                "lang": "en",
                "value": "Bilirubin (umol/L)"
              }
            },
            "rank": 3
          },
          "BILIHY": {
            "decode": {
              "schema:PropertyValue": {
                "lang": "en",
                "value": "Bilirubin 1.5 x ULN"
              }
            },
            "rank": 4
          },
          "TRANSHY": {
            "decode": {
              "schema:PropertyValue": {
                "lang": "en",
                "value": "Transaminase 1.5 x ULN"
              }
            },
            "rank": 5
          },
          "HYLAW": {
            "decode": {
              "schema:PropertyValue": {
                "lang": "en",
                "value": "Total Bili 1.5 x ULN and Transaminase 1.5 x ULN"
              }
            },
            "rank": 6
          }
        },
        "name": "PARAMCD_ADLBHY"
      }
    ],
    "PARAMCD_ADQSADAS": [
      {
        "dataType": "text",
        "codeListItem": {
          "ACITM01": {
            "decode": {
              "schema:PropertyValue": {
                "lang": "en",
                "value": "Word Recall Task"
              }
            },
            "rank": 1
          },
          "ACITM02": {
            "decode": {
              "schema:PropertyValue": {
                "lang": "en",
                "value": "Naming Objects And Fingers (Refer To 5 C"
              }
            },
            "rank": 2
          },
          "ACITM03": {
            "decode": {
              "schema:PropertyValue": {
                "lang": "en",
                "value": "Delayed Word Recall"
              }
            },
            "rank": 3
          },
          "ACITM04": {
            "decode": {
              "schema:PropertyValue": {
                "lang": "en",
                "value": "Commands"
              }
            },
            "rank": 4
          },
          "ACITM05": {
            "decode": {
              "schema:PropertyValue": {
                "lang": "en",
                "value": "Constructional Praxis"
              }
            },
            "rank": 5
          },
          "ACITM06": {
            "decode": {
              "schema:PropertyValue": {
                "lang": "en",
                "value": "Ideational Praxis"
              }
            },
            "rank": 6
          },
          "ACITM07": {
            "decode": {
              "schema:PropertyValue": {
                "lang": "en",
                "value": "Orientation"
              }
            },
            "rank": 7
          },
          "ACITM08": {
            "decode": {
              "schema:PropertyValue": {
                "lang": "en",
                "value": "Word Recognition"
              }
            },
            "rank": 8
          },
          "ACITM09": {
            "decode": {
              "schema:PropertyValue": {
                "lang": "en",
                "value": "Attention/Visual Search Task"
              }
            },
            "rank": 9
          },
          "ACITM10": {
            "decode": {
              "schema:PropertyValue": {
                "lang": "en",
                "value": "Maze Solution"
              }
            },
            "rank": 10
          },
          "ACITM11": {
            "decode": {
              "schema:PropertyValue": {
                "lang": "en",
                "value": "Spoken Language Ability"
              }
            },
            "rank": 11
          },
          "ACITM12": {
            "decode": {
              "schema:PropertyValue": {
                "lang": "en",
                "value": "Comprehension Of Spoken Language"
              }
            },
            "rank": 12
          },
          "ACITM13": {
            "decode": {
              "schema:PropertyValue": {
                "lang": "en",
                "value": "Word Finding Difficulty In Spontaneous S"
              }
            },
            "rank": 13
          },
          "ACITM14": {
            "decode": {
              "schema:PropertyValue": {
                "lang": "en",
                "value": "Recall Of Test Instructions"
              }
            },
            "rank": 14
          },
          "ACTOT": {
            "decode": {
              "schema:PropertyValue": {
                "lang": "en",
                "value": "Adas-Cog(11) Subscore"
              }
            },
            "rank": 15
          }
        },
        "name": "PARAMCD_ADQSADAS"
      }
    ],
    "PARAMCD_ADQSCIBC": [
      {
        "dataType": "text",
        "codeListItem": {
          "CIBICVAL": {
            "decode": {
              "schema:PropertyValue": {
                "lang": "en",
                "value": "CIBIC Score"
              }
            },
            "rank": 1
          }
        },
        "name": "PARAMCD_ADQSCIBC"
      }
    ],
    "PARAMCD_ADQSNPIX": [
      {
        "dataType": "text",
        "codeListItem": {
          "NPITM01S": {
            "decode": {
              "schema:PropertyValue": {
                "lang": "en",
                "value": "NPI-X Item A (Delusion) Score"
              }
            },
            "rank": 1
          },
          "NPITM02S": {
            "decode": {
              "schema:PropertyValue": {
                "lang": "en",
                "value": "NPI-X Item B (Hallucination) Score"
              }
            },
            "rank": 2
          },
          "NPITM03S": {
            "decode": {
              "schema:PropertyValue": {
                "lang": "en",
                "value": "NPI-X Item C (Agitation/Agression) Score"
              }
            },
            "rank": 3
          },
          "NPITM04S": {
            "decode": {
              "schema:PropertyValue": {
                "lang": "en",
                "value": "NPI-X Item D (Depression/Dysphoria) Score"
              }
            },
            "rank": 4
          },
          "NPITM05S": {
            "decode": {
              "schema:PropertyValue": {
                "lang": "en",
                "value": "NPI-X Item E (Anxiety) Score"
              }
            },
            "rank": 5
          },
          "NPITM06S": {
            "decode": {
              "schema:PropertyValue": {
                "lang": "en",
                "value": "NPI-X Item F (Eupohoria/Elation) Score"
              }
            },
            "rank": 6
          },
          "NPITM07S": {
            "decode": {
              "schema:PropertyValue": {
                "lang": "en",
                "value": "NPI-X Item G (Apathy/Indifference) Score"
              }
            },
            "rank": 7
          },
          "NPITM08S": {
            "decode": {
              "schema:PropertyValue": {
                "lang": "en",
                "value": "NPI-X Item H (Disinhibition) Score"
              }
            },
            "rank": 8
          },
          "NPITM09S": {
            "decode": {
              "schema:PropertyValue": {
                "lang": "en",
                "value": "NPI-X Item I (Irritability/Lability) Score"
              }
            },
            "rank": 9
          },
          "NPITM10S": {
            "decode": {
              "schema:PropertyValue": {
                "lang": "en",
                "value": "NPI-X Item J (Aberrant Motor Behavior) Score"
              }
            },
            "rank": 10
          },
          "NPITM11S": {
            "decode": {
              "schema:PropertyValue": {
                "lang": "en",
                "value": "NPI-X Item K (Night-time Behavior) Score"
              }
            },
            "rank": 11
          },
          "NPITM12S": {
            "decode": {
              "schema:PropertyValue": {
                "lang": "en",
                "value": "NPI-X Item L (Appetite/Eating Change) Score"
              }
            },
            "rank": 12
          },
          "NPTOT": {
            "decode": {
              "schema:PropertyValue": {
                "lang": "en",
                "value": "NPI-X (9) Total Score"
              }
            },
            "rank": 13
          },
          "NPTOTMN": {
            "decode": {
              "schema:PropertyValue": {
                "lang": "en",
                "value": "Mean NPI-X (9) Total (Week 4 to 24)"
              }
            },
            "rank": 14
          }
        },
        "name": "PARAMCD_ADQSNPIX"
      }
    ],
    "PARAMCD_ADTTE": [
      {
        "dataType": "text",
        "codeListItem": {
          "TTDE": {
            "decode": {
              "schema:PropertyValue": {
                "lang": "en",
                "value": "Time to Derm. Event or End of Study"
              }
            },
            "rank": 1
          }
        },
        "name": "PARAMCD_ADTTE"
      }
    ],
    "PARAMCD_ADVS": [
      {
        "dataType": "text",
        "codeListItem": {
          "SYSBP": {
            "decode": {
              "schema:PropertyValue": {
                "lang": "en",
                "value": "Systolic Blood Pressure (mmHg)"
              }
            },
            "rank": 1
          },
          "DIABP": {
            "decode": {
              "schema:PropertyValue": {
                "lang": "en",
                "value": "Diastolic Blood Pressure (mmHg)"
              }
            },
            "rank": 2
          },
          "PULSE": {
            "decode": {
              "schema:PropertyValue": {
                "lang": "en",
                "value": "Pulse Rate (BEATS/MIN)"
              }
            },
            "rank": 3
          },
          "WEIGHT": {
            "decode": {
              "schema:PropertyValue": {
                "lang": "en",
                "value": "Weight (kg)"
              }
            },
            "rank": 4
          },
          "HEIGHT": {
            "decode": {
              "schema:PropertyValue": {
                "lang": "en",
                "value": "Height (cm)"
              }
            },
            "rank": 5
          },
          "TEMP": {
            "decode": {
              "schema:PropertyValue": {
                "lang": "en",
                "value": "Temperature (C)"
              }
            },
            "rank": 6
          }
        },
        "name": "PARAMCD_ADVS"
      }
    ],
    "PARAMN_ADLBC": [
      {
        "dataType": "integer",
        "codeListItem": {
          "18": {
            "decode": {
              "schema:PropertyValue": {
                "lang": "en",
                "value": "Sodium (mmol/L)"
              }
            },
            "rank": 1
          },
          "19": {
            "decode": {
              "schema:PropertyValue": {
                "lang": "en",
                "value": "Potassium (mmol/L)"
              }
            },
            "rank": 2
          },
          "20": {
            "decode": {
              "schema:PropertyValue": {
                "lang": "en",
                "value": "Chloride (mmol/L)"
              }
            },
            "rank": 3
          },
          "21": {
            "decode": {
              "schema:PropertyValue": {
                "lang": "en",
                "value": "Bilirubin (umol/L)"
              }
            },
            "rank": 4
          },
          "22": {
            "decode": {
              "schema:PropertyValue": {
                "lang": "en",
                "value": "Alkaline Phosphatase (U/L)"
              }
            },
            "rank": 5
          },
          "23": {
            "decode": {
              "schema:PropertyValue": {
                "lang": "en",
                "value": "Gamma Glutamyl Transferase (U/L)"
              }
            },
            "rank": 6
          },
          "24": {
            "decode": {
              "schema:PropertyValue": {
                "lang": "en",
                "value": "Alanine Aminotransferase (U/L)"
              }
            },
            "rank": 7
          },
          "25": {
            "decode": {
              "schema:PropertyValue": {
                "lang": "en",
                "value": "Aspartate Aminotransferase (U/L)"
              }
            },
            "rank": 8
          },
          "26": {
            "decode": {
              "schema:PropertyValue": {
                "lang": "en",
                "value": "Blood Urea Nitrogen (mmol/L)"
              }
            },
            "rank": 9
          },
          "27": {
            "decode": {
              "schema:PropertyValue": {
                "lang": "en",
                "value": "Creatinine (umol/L)"
              }
            },
            "rank": 10
          },
          "28": {
            "decode": {
              "schema:PropertyValue": {
                "lang": "en",
                "value": "Urate (umol/L)"
              }
            },
            "rank": 11
          },
          "29": {
            "decode": {
              "schema:PropertyValue": {
                "lang": "en",
                "value": "Phosphate (mmol/L)"
              }
            },
            "rank": 12
          },
          "30": {
            "decode": {
              "schema:PropertyValue": {
                "lang": "en",
                "value": "Calcium (mmol/L)"
              }
            },
            "rank": 13
          },
          "31": {
            "decode": {
              "schema:PropertyValue": {
                "lang": "en",
                "value": "Glucose (mmol/L)"
              }
            },
            "rank": 14
          },
          "32": {
            "decode": {
              "schema:PropertyValue": {
                "lang": "en",
                "value": "Protein (g/L)"
              }
            },
            "rank": 15
          },
          "33": {
            "decode": {
              "schema:PropertyValue": {
                "lang": "en",
                "value": "Albumin (g/L)"
              }
            },
            "rank": 16
          },
          "34": {
            "decode": {
              "schema:PropertyValue": {
                "lang": "en",
                "value": "Cholesterol (mmol/L)"
              }
            },
            "rank": 17
          },
          "35": {
            "decode": {
              "schema:PropertyValue": {
                "lang": "en",
                "value": "Creatine Kinase (U/L)"
              }
            },
            "rank": 18
          },
          "118": {
            "decode": {
              "schema:PropertyValue": {
                "lang": "en",
                "value": "Sodium (mmol/L) change from previous visit, relative to normal range"
              }
            },
            "rank": 19
          },
          "119": {
            "decode": {
              "schema:PropertyValue": {
                "lang": "en",
                "value": "Potassium (mmol/L) change from previous visit, relative to normal range"
              }
            },
            "rank": 20
          },
          "120": {
            "decode": {
              "schema:PropertyValue": {
                "lang": "en",
                "value": "Chloride (mmol/L) change from previous visit, relative to normal range"
              }
            },
            "rank": 21
          },
          "121": {
            "decode": {
              "schema:PropertyValue": {
                "lang": "en",
                "value": "Bilirubin (umol/L) change from previous visit, relative to normal range"
              }
            },
            "rank": 22
          },
          "122": {
            "decode": {
              "schema:PropertyValue": {
                "lang": "en",
                "value": "Alkaline Phosphatase (U/L) change from previous visit, relative to normal range"
              }
            },
            "rank": 23
          },
          "123": {
            "decode": {
              "schema:PropertyValue": {
                "lang": "en",
                "value": "Gamma Glutamyl Transferase (U/L) change from previous visit, relative to normal range"
              }
            },
            "rank": 24
          },
          "124": {
            "decode": {
              "schema:PropertyValue": {
                "lang": "en",
                "value": "Alanine Aminotransferase (U/L) change from previous visit, relative to normal range"
              }
            },
            "rank": 25
          },
          "125": {
            "decode": {
              "schema:PropertyValue": {
                "lang": "en",
                "value": "Aspartate Aminotransferase (U/L) change from previous visit, relative to normal range"
              }
            },
            "rank": 26
          },
          "126": {
            "decode": {
              "schema:PropertyValue": {
                "lang": "en",
                "value": "Blood Urea Nitrogen (mmol/L) change from previous visit, relative to normal range"
              }
            },
            "rank": 27
          },
          "127": {
            "decode": {
              "schema:PropertyValue": {
                "lang": "en",
                "value": "Creatinine (umol/L) change from previous visit, relative to normal range"
              }
            },
            "rank": 28
          },
          "128": {
            "decode": {
              "schema:PropertyValue": {
                "lang": "en",
                "value": "Urate (umol/L) change from previous visit, relative to normal range"
              }
            },
            "rank": 29
          },
          "129": {
            "decode": {
              "schema:PropertyValue": {
                "lang": "en",
                "value": "Phosphate (mmol/L) change from previous visit, relative to normal range"
              }
            },
            "rank": 30
          },
          "130": {
            "decode": {
              "schema:PropertyValue": {
                "lang": "en",
                "value": "Calcium (mmol/L) change from previous visit, relative to normal range"
              }
            },
            "rank": 31
          },
          "131": {
            "decode": {
              "schema:PropertyValue": {
                "lang": "en",
                "value": "Glucose (mmol/L) change from previous visit, relative to normal range"
              }
            },
            "rank": 32
          },
          "132": {
            "decode": {
              "schema:PropertyValue": {
                "lang": "en",
                "value": "Protein (g/L) change from previous visit, relative to normal range"
              }
            },
            "rank": 33
          },
          "133": {
            "decode": {
              "schema:PropertyValue": {
                "lang": "en",
                "value": "Albumin (g/L) change from previous visit, relative to normal range"
              }
            },
            "rank": 34
          },
          "134": {
            "decode": {
              "schema:PropertyValue": {
                "lang": "en",
                "value": "Cholesterol (mmol/L) change from previous visit, relative to normal range"
              }
            },
            "rank": 35
          },
          "135": {
            "decode": {
              "schema:PropertyValue": {
                "lang": "en",
                "value": "Creatine Kinase (U/L) change from previous visit, relative to normal range"
              }
            },
            "rank": 36
          }
        },
        "name": "PARAMN_ADLBC"
      }
    ],
    "PARAMN_ADLBH": [
      {
        "dataType": "integer",
        "codeListItem": {
          "1": {
            "decode": {
              "schema:PropertyValue": {
                "lang": "en",
                "value": "Hemoglobin (mmol/L)"
              }
            },
            "rank": 1
          },
          "2": {
            "decode": {
              "schema:PropertyValue": {
                "lang": "en",
                "value": "Hematocrit"
              }
            },
            "rank": 2
          },
          "3": {
            "decode": {
              "schema:PropertyValue": {
                "lang": "en",
                "value": "Ery. Mean Corpuscular Volume (fL)"
              }
            },
            "rank": 3
          },
          "4": {
            "decode": {
              "schema:PropertyValue": {
                "lang": "en",
                "value": "Ery. Mean Corpuscular Hemoglobin (fmol(Fe))"
              }
            },
            "rank": 4
          },
          "5": {
            "decode": {
              "schema:PropertyValue": {
                "lang": "en",
                "value": "Ery. Mean Corpuscular HGB Concentration (mmol/L)"
              }
            },
            "rank": 5
          },
          "6": {
            "decode": {
              "schema:PropertyValue": {
                "lang": "en",
                "value": "Leukocytes (GI/L)"
              }
            },
            "rank": 6
          },
          "7": {
            "decode": {
              "schema:PropertyValue": {
                "lang": "en",
                "value": "Lymphocytes (GI/L)"
              }
            },
            "rank": 7
          },
          "8": {
            "decode": {
              "schema:PropertyValue": {
                "lang": "en",
                "value": "Monocytes (GI/L)"
              }
            },
            "rank": 8
          },
          "9": {
            "decode": {
              "schema:PropertyValue": {
                "lang": "en",
                "value": "Eosinophils (GI/L)"
              }
            },
            "rank": 9
          },
          "10": {
            "decode": {
              "schema:PropertyValue": {
                "lang": "en",
                "value": "Basophils (GI/L)"
              }
            },
            "rank": 10
          },
          "11": {
            "decode": {
              "schema:PropertyValue": {
                "lang": "en",
                "value": "Platelet (GI/L)"
              }
            },
            "rank": 11
          },
          "12": {
            "decode": {
              "schema:PropertyValue": {
                "lang": "en",
                "value": "Erythrocytes (TI/L)"
              }
            },
            "rank": 12
          },
          "13": {
            "decode": {
              "schema:PropertyValue": {
                "lang": "en",
                "value": "Anisocytes"
              }
            },
            "rank": 13
          },
          "14": {
            "decode": {
              "schema:PropertyValue": {
                "lang": "en",
                "value": "Macrocytes"
              }
            },
            "rank": 14
          },
          "15": {
            "decode": {
              "schema:PropertyValue": {
                "lang": "en",
                "value": "Microcytes"
              }
            },
            "rank": 15
          },
          "16": {
            "decode": {
              "schema:PropertyValue": {
                "lang": "en",
                "value": "Poikilocytes"
              }
            },
            "rank": 16
          },
          "17": {
            "decode": {
              "schema:PropertyValue": {
                "lang": "en",
                "value": "Polychromasia"
              }
            },
            "rank": 17
          },
          "101": {
            "decode": {
              "schema:PropertyValue": {
                "lang": "en",
                "value": "Hemoglobin (mmol/L) change from previous visit, relative to normal range"
              }
            },
            "rank": 18
          },
          "102": {
            "decode": {
              "schema:PropertyValue": {
                "lang": "en",
                "value": "Hematocrit change from previous visit, relative to normal range"
              }
            },
            "rank": 19
          },
          "103": {
            "decode": {
              "schema:PropertyValue": {
                "lang": "en",
                "value": "Ery. Mean Corpuscular Volume (fL) change from previous visit, relative to normal range"
              }
            },
            "rank": 20
          },
          "104": {
            "decode": {
              "schema:PropertyValue": {
                "lang": "en",
                "value": "Ery. Mean Corpuscular Hemoglobin (fmol(Fe)) change from previous visit, relative to normal range"
              }
            },
            "rank": 21
          },
          "105": {
            "decode": {
              "schema:PropertyValue": {
                "lang": "en",
                "value": "Ery. Mean Corpuscular HGB Concentration (mmol/L) change from previous visit, relative to normal rang"
              }
            },
            "rank": 22
          },
          "106": {
            "decode": {
              "schema:PropertyValue": {
                "lang": "en",
                "value": "Leukocytes (GI/L) change from previous visit, relative to normal range"
              }
            },
            "rank": 23
          },
          "107": {
            "decode": {
              "schema:PropertyValue": {
                "lang": "en",
                "value": "Lymphocytes (GI/L) change from previous visit, relative to normal range"
              }
            },
            "rank": 24
          },
          "108": {
            "decode": {
              "schema:PropertyValue": {
                "lang": "en",
                "value": "Monocytes (GI/L) change from previous visit, relative to normal range"
              }
            },
            "rank": 25
          },
          "109": {
            "decode": {
              "schema:PropertyValue": {
                "lang": "en",
                "value": "Eosinophils (GI/L) change from previous visit, relative to normal range"
              }
            },
            "rank": 26
          },
          "110": {
            "decode": {
              "schema:PropertyValue": {
                "lang": "en",
                "value": "Basophils (GI/L) change from previous visit, relative to normal range"
              }
            },
            "rank": 27
          },
          "111": {
            "decode": {
              "schema:PropertyValue": {
                "lang": "en",
                "value": "Platelet (GI/L) change from previous visit, relative to normal range"
              }
            },
            "rank": 28
          },
          "112": {
            "decode": {
              "schema:PropertyValue": {
                "lang": "en",
                "value": "Erythrocytes (TI/L) change from previous visit, relative to normal range"
              }
            },
            "rank": 29
          },
          "113": {
            "decode": {
              "schema:PropertyValue": {
                "lang": "en",
                "value": "Anisocytes change from previous visit, relative to normal range"
              }
            },
            "rank": 30
          },
          "114": {
            "decode": {
              "schema:PropertyValue": {
                "lang": "en",
                "value": "Macrocytes change from previous visit, relative to normal range"
              }
            },
            "rank": 31
          },
          "115": {
            "decode": {
              "schema:PropertyValue": {
                "lang": "en",
                "value": "Microcytes change from previous visit, relative to normal range"
              }
            },
            "rank": 32
          },
          "116": {
            "decode": {
              "schema:PropertyValue": {
                "lang": "en",
                "value": "Poikilocytes change from previous visit, relative to normal range"
              }
            },
            "rank": 33
          },
          "117": {
            "decode": {
              "schema:PropertyValue": {
                "lang": "en",
                "value": "Polychromasia change from previous visit, relative to normal range"
              }
            },
            "rank": 34
          }
        },
        "name": "PARAMN_ADLBH"
      }
    ],
    "PARAMN_ADLBHY": [
      {
        "dataType": "integer",
        "codeListItem": {
          "1": {
            "decode": {
              "schema:PropertyValue": {
                "lang": "en",
                "value": "Alanine Aminotransferase (U/L)"
              }
            },
            "rank": 1
          },
          "2": {
            "decode": {
              "schema:PropertyValue": {
                "lang": "en",
                "value": "Aspartate Aminotransferase (U/L)"
              }
            },
            "rank": 2
          },
          "3": {
            "decode": {
              "schema:PropertyValue": {
                "lang": "en",
                "value": "Bilirubin (umol/L)"
              }
            },
            "rank": 3
          },
          "4": {
            "decode": {
              "schema:PropertyValue": {
                "lang": "en",
                "value": "Bilirubin 1.5 x ULN"
              }
            },
            "rank": 4
          },
          "5": {
            "decode": {
              "schema:PropertyValue": {
                "lang": "en",
                "value": "Transaminase 1.5 x ULN"
              }
            },
            "rank": 5
          },
          "6": {
            "decode": {
              "schema:PropertyValue": {
                "lang": "en",
                "value": "Total Bili 1.5 x ULN and Transaminase 1.5 x ULN"
              }
            },
            "rank": 6
          }
        },
        "name": "PARAMN_ADLBHY"
      }
    ],
    "PARAMN_ADQSADAS": [
      {
        "dataType": "integer",
        "codeListItem": {
          "1": {
            "decode": {
              "schema:PropertyValue": {
                "lang": "en",
                "value": "Word Recall Task"
              }
            },
            "rank": 1
          },
          "2": {
            "decode": {
              "schema:PropertyValue": {
                "lang": "en",
                "value": "Naming Objects And Fingers (Refer To 5 C"
              }
            },
            "rank": 2
          },
          "3": {
            "decode": {
              "schema:PropertyValue": {
                "lang": "en",
                "value": "Delayed Word Recall"
              }
            },
            "rank": 3
          },
          "4": {
            "decode": {
              "schema:PropertyValue": {
                "lang": "en",
                "value": "Commands"
              }
            },
            "rank": 4
          },
          "5": {
            "decode": {
              "schema:PropertyValue": {
                "lang": "en",
                "value": "Constructional Praxis"
              }
            },
            "rank": 5
          },
          "6": {
            "decode": {
              "schema:PropertyValue": {
                "lang": "en",
                "value": "Ideational Praxis"
              }
            },
            "rank": 6
          },
          "7": {
            "decode": {
              "schema:PropertyValue": {
                "lang": "en",
                "value": "Orientation"
              }
            },
            "rank": 7
          },
          "8": {
            "decode": {
              "schema:PropertyValue": {
                "lang": "en",
                "value": "Word Recognition"
              }
            },
            "rank": 8
          },
          "9": {
            "decode": {
              "schema:PropertyValue": {
                "lang": "en",
                "value": "Attention/Visual Search Task"
              }
            },
            "rank": 9
          },
          "10": {
            "decode": {
              "schema:PropertyValue": {
                "lang": "en",
                "value": "Maze Solution"
              }
            },
            "rank": 10
          },
          "11": {
            "decode": {
              "schema:PropertyValue": {
                "lang": "en",
                "value": "Spoken Language Ability"
              }
            },
            "rank": 11
          },
          "12": {
            "decode": {
              "schema:PropertyValue": {
                "lang": "en",
                "value": "Comprehension Of Spoken Language"
              }
            },
            "rank": 12
          },
          "13": {
            "decode": {
              "schema:PropertyValue": {
                "lang": "en",
                "value": "Word Finding Difficulty In Spontaneous S"
              }
            },
            "rank": 13
          },
          "14": {
            "decode": {
              "schema:PropertyValue": {
                "lang": "en",
                "value": "Recall Of Test Instructions"
              }
            },
            "rank": 14
          },
          "15": {
            "decode": {
              "schema:PropertyValue": {
                "lang": "en",
                "value": "Adas-Cog(11) Subscore"
              }
            },
            "rank": 15
          }
        },
        "name": "PARAMN_ADQSADAS"
      }
    ],
    "PARAMN_ADQSCIBC": [
      {
        "dataType": "integer",
        "codeListItem": {
          "1": {
            "decode": {
              "schema:PropertyValue": {
                "lang": "en",
                "value": "CIBIC Score"
              }
            },
            "rank": 1
          }
        },
        "name": "PARAMN_ADQSCIBC"
      }
    ],
    "PARAMN_ADQSNPIX": [
      {
        "dataType": "integer",
        "codeListItem": {
          "1": {
            "decode": {
              "schema:PropertyValue": {
                "lang": "en",
                "value": "NPI-X Item A (Delusion) Score"
              }
            },
            "rank": 1
          },
          "2": {
            "decode": {
              "schema:PropertyValue": {
                "lang": "en",
                "value": "NPI-X Item B (Hallucination) Score"
              }
            },
            "rank": 2
          },
          "3": {
            "decode": {
              "schema:PropertyValue": {
                "lang": "en",
                "value": "NPI-X Item C (Agitation/Agression) Score"
              }
            },
            "rank": 3
          },
          "4": {
            "decode": {
              "schema:PropertyValue": {
                "lang": "en",
                "value": "NPI-X Item D (Depression/Dysphoria) Score"
              }
            },
            "rank": 4
          },
          "5": {
            "decode": {
              "schema:PropertyValue": {
                "lang": "en",
                "value": "NPI-X Item E (Anxiety) Score"
              }
            },
            "rank": 5
          },
          "6": {
            "decode": {
              "schema:PropertyValue": {
                "lang": "en",
                "value": "NPI-X Item F (Eupohoria/Elation) Score"
              }
            },
            "rank": 6
          },
          "7": {
            "decode": {
              "schema:PropertyValue": {
                "lang": "en",
                "value": "NPI-X Item G (Apathy/Indifference) Score"
              }
            },
            "rank": 7
          },
          "8": {
            "decode": {
              "schema:PropertyValue": {
                "lang": "en",
                "value": "NPI-X Item H (Disinhibition) Score"
              }
            },
            "rank": 8
          },
          "9": {
            "decode": {
              "schema:PropertyValue": {
                "lang": "en",
                "value": "NPI-X Item I (Irritability/Lability) Score"
              }
            },
            "rank": 9
          },
          "10": {
            "decode": {
              "schema:PropertyValue": {
                "lang": "en",
                "value": "NPI-X Item J (Aberrant Motor Behavior) Score"
              }
            },
            "rank": 10
          },
          "11": {
            "decode": {
              "schema:PropertyValue": {
                "lang": "en",
                "value": "NPI-X Item K (Night-time Behavior) Score"
              }
            },
            "rank": 11
          },
          "12": {
            "decode": {
              "schema:PropertyValue": {
                "lang": "en",
                "value": "NPI-X Item L (Appetite/Eating Change) Score"
              }
            },
            "rank": 12
          },
          "13": {
            "decode": {
              "schema:PropertyValue": {
                "lang": "en",
                "value": "NPI-X (9) Total Score"
              }
            },
            "rank": 13
          },
          "14": {
            "decode": {
              "schema:PropertyValue": {
                "lang": "en",
                "value": "Mean NPI-X (9) Total (Week 4 to 24)"
              }
            },
            "rank": 14
          }
        },
        "name": "PARAMN_ADQSNPIX"
      }
    ],
    "PARAMN_ADVS": [
      {
        "dataType": "integer",
        "codeListItem": {
          "1": {
            "decode": {
              "schema:PropertyValue": {
                "lang": "en",
                "value": "Systolic Blood Pressure (mmHg)"
              }
            },
            "rank": 1
          },
          "2": {
            "decode": {
              "schema:PropertyValue": {
                "lang": "en",
                "value": "Diastolic Blood Pressure (mmHg)"
              }
            },
            "rank": 2
          },
          "3": {
            "decode": {
              "schema:PropertyValue": {
                "lang": "en",
                "value": "Pulse Rate (BEATS/MIN)"
              }
            },
            "rank": 3
          },
          "4": {
            "decode": {
              "schema:PropertyValue": {
                "lang": "en",
                "value": "Weight (kg)"
              }
            },
            "rank": 4
          },
          "5": {
            "decode": {
              "schema:PropertyValue": {
                "lang": "en",
                "value": "Height (cm)"
              }
            },
            "rank": 5
          },
          "6": {
            "decode": {
              "schema:PropertyValue": {
                "lang": "en",
                "value": "Temperature (C)"
              }
            },
            "rank": 6
          }
        },
        "name": "PARAMN_ADVS"
      }
    ],
    "PARAMTYP": [
      {
        "dataType": "text",
        "codeListItem": {
          "DERIVED": {
            "decode": {
              "schema:PropertyValue": {
                "lang": "en",
                "value": "DERIVED"
              }
            },
            "rank": 1
          }
        },
        "name": "PARAMTYP"
      }
    ],
    "PARAM_ADLBC": [
      {
        "dataType": "text",
        "codeListItem": {
          "Albumin (g/L)": {
            "decode": {
              "schema:PropertyValue": {
                "lang": "en",
                "value": "Albumin (g/L)"
              }
            },
            "rank": 1
          },
          "Alkaline Phosphatase (U/L)": {
            "decode": {
              "schema:PropertyValue": {
                "lang": "en",
                "value": "Alkaline Phosphatase (U/L)"
              }
            },
            "rank": 2
          },
          "Alanine Aminotransferase (U/L)": {
            "decode": {
              "schema:PropertyValue": {
                "lang": "en",
                "value": "Alanine Aminotransferase (U/L)"
              }
            },
            "rank": 3
          },
          "Aspartate Aminotransferase (U/L)": {
            "decode": {
              "schema:PropertyValue": {
                "lang": "en",
                "value": "Aspartate Aminotransferase (U/L)"
              }
            },
            "rank": 4
          },
          "Bilirubin (umol/L)": {
            "decode": {
              "schema:PropertyValue": {
                "lang": "en",
                "value": "Bilirubin (umol/L)"
              }
            },
            "rank": 5
          },
          "Blood Urea Nitrogen (mmol/L)": {
            "decode": {
              "schema:PropertyValue": {
                "lang": "en",
                "value": "Blood Urea Nitrogen (mmol/L)"
              }
            },
            "rank": 6
          },
          "Calcium (mmol/L)": {
            "decode": {
              "schema:PropertyValue": {
                "lang": "en",
                "value": "Calcium (mmol/L)"
              }
            },
            "rank": 7
          },
          "Cholesterol (mmol/L)": {
            "decode": {
              "schema:PropertyValue": {
                "lang": "en",
                "value": "Cholesterol (mmol/L)"
              }
            },
            "rank": 8
          },
          "Creatine Kinase (U/L)": {
            "decode": {
              "schema:PropertyValue": {
                "lang": "en",
                "value": "Creatine Kinase (U/L)"
              }
            },
            "rank": 9
          },
          "Chloride (mmol/L)": {
            "decode": {
              "schema:PropertyValue": {
                "lang": "en",
                "value": "Chloride (mmol/L)"
              }
            },
            "rank": 10
          },
          "Creatinine (umol/L)": {
            "decode": {
              "schema:PropertyValue": {
                "lang": "en",
                "value": "Creatinine (umol/L)"
              }
            },
            "rank": 11
          },
          "Gamma Glutamyl Transferase (U/L)": {
            "decode": {
              "schema:PropertyValue": {
                "lang": "en",
                "value": "Gamma Glutamyl Transferase (U/L)"
              }
            },
            "rank": 12
          },
          "Glucose (mmol/L)": {
            "decode": {
              "schema:PropertyValue": {
                "lang": "en",
                "value": "Glucose (mmol/L)"
              }
            },
            "rank": 13
          },
          "Potassium (mmol/L)": {
            "decode": {
              "schema:PropertyValue": {
                "lang": "en",
                "value": "Potassium (mmol/L)"
              }
            },
            "rank": 14
          },
          "Phosphate (mmol/L)": {
            "decode": {
              "schema:PropertyValue": {
                "lang": "en",
                "value": "Phosphate (mmol/L)"
              }
            },
            "rank": 15
          },
          "Protein (g/L)": {
            "decode": {
              "schema:PropertyValue": {
                "lang": "en",
                "value": "Protein (g/L)"
              }
            },
            "rank": 16
          },
          "Sodium (mmol/L)": {
            "decode": {
              "schema:PropertyValue": {
                "lang": "en",
                "value": "Sodium (mmol/L)"
              }
            },
            "rank": 17
          },
          "Urate (umol/L)": {
            "decode": {
              "schema:PropertyValue": {
                "lang": "en",
                "value": "Urate (umol/L)"
              }
            },
            "rank": 18
          },
          "Albumin (g/L) change from previous visit, relative to normal range": {
            "decode": {
              "schema:PropertyValue": {
                "lang": "en",
                "value": "Albumin (g/L) change from previous visit, relative to normal range"
              }
            },
            "rank": 19
          },
          "Alkaline Phosphatase (U/L) change from previous visit, relative to normal range": {
            "decode": {
              "schema:PropertyValue": {
                "lang": "en",
                "value": "Alkaline Phosphatase (U/L) change from previous visit, relative to normal range"
              }
            },
            "rank": 20
          },
          "Alanine Aminotransferase (U/L) change from previous visit, relative to normal range": {
            "decode": {
              "schema:PropertyValue": {
                "lang": "en",
                "value": "Alanine Aminotransferase (U/L) change from previous visit, relative to normal range"
              }
            },
            "rank": 21
          },
          "Aspartate Aminotransferase (U/L) change from previous visit, relative to normal range": {
            "decode": {
              "schema:PropertyValue": {
                "lang": "en",
                "value": "Aspartate Aminotransferase (U/L) change from previous visit, relative to normal range"
              }
            },
            "rank": 22
          },
          "Bilirubin (umol/L) change from previous visit, relative to normal range": {
            "decode": {
              "schema:PropertyValue": {
                "lang": "en",
                "value": "Bilirubin (umol/L) change from previous visit, relative to normal range"
              }
            },
            "rank": 23
          },
          "Blood Urea Nitrogen (mmol/L) change from previous visit, relative to normal range": {
            "decode": {
              "schema:PropertyValue": {
                "lang": "en",
                "value": "Blood Urea Nitrogen (mmol/L) change from previous visit, relative to normal range"
              }
            },
            "rank": 24
          },
          "Calcium (mmol/L) change from previous visit, relative to normal range": {
            "decode": {
              "schema:PropertyValue": {
                "lang": "en",
                "value": "Calcium (mmol/L) change from previous visit, relative to normal range"
              }
            },
            "rank": 25
          },
          "Cholesterol (mmol/L) change from previous visit, relative to normal range": {
            "decode": {
              "schema:PropertyValue": {
                "lang": "en",
                "value": "Cholesterol (mmol/L) change from previous visit, relative to normal range"
              }
            },
            "rank": 26
          },
          "Creatine Kinase (U/L) change from previous visit, relative to normal range": {
            "decode": {
              "schema:PropertyValue": {
                "lang": "en",
                "value": "Creatine Kinase (U/L) change from previous visit, relative to normal range"
              }
            },
            "rank": 27
          },
          "Chloride (mmol/L) change from previous visit, relative to normal range": {
            "decode": {
              "schema:PropertyValue": {
                "lang": "en",
                "value": "Chloride (mmol/L) change from previous visit, relative to normal range"
              }
            },
            "rank": 28
          },
          "Creatinine (umol/L) change from previous visit, relative to normal range": {
            "decode": {
              "schema:PropertyValue": {
                "lang": "en",
                "value": "Creatinine (umol/L) change from previous visit, relative to normal range"
              }
            },
            "rank": 29
          },
          "Gamma Glutamyl Transferase (U/L) change from previous visit, relative to normal range": {
            "decode": {
              "schema:PropertyValue": {
                "lang": "en",
                "value": "Gamma Glutamyl Transferase (U/L) change from previous visit, relative to normal range"
              }
            },
            "rank": 30
          },
          "Glucose (mmol/L) change from previous visit, relative to normal range": {
            "decode": {
              "schema:PropertyValue": {
                "lang": "en",
                "value": "Glucose (mmol/L) change from previous visit, relative to normal range"
              }
            },
            "rank": 31
          },
          "Potassium (mmol/L) change from previous visit, relative to normal range": {
            "decode": {
              "schema:PropertyValue": {
                "lang": "en",
                "value": "Potassium (mmol/L) change from previous visit, relative to normal range"
              }
            },
            "rank": 32
          },
          "Phosphate (mmol/L) change from previous visit, relative to normal range": {
            "decode": {
              "schema:PropertyValue": {
                "lang": "en",
                "value": "Phosphate (mmol/L) change from previous visit, relative to normal range"
              }
            },
            "rank": 33
          },
          "Protein (g/L) change from previous visit, relative to normal range": {
            "decode": {
              "schema:PropertyValue": {
                "lang": "en",
                "value": "Protein (g/L) change from previous visit, relative to normal range"
              }
            },
            "rank": 34
          },
          "Sodium (mmol/L) change from previous visit, relative to normal range": {
            "decode": {
              "schema:PropertyValue": {
                "lang": "en",
                "value": "Sodium (mmol/L) change from previous visit, relative to normal range"
              }
            },
            "rank": 35
          },
          "Urate (umol/L) change from previous visit, relative to normal range": {
            "decode": {
              "schema:PropertyValue": {
                "lang": "en",
                "value": "Urate (umol/L) change from previous visit, relative to normal range"
              }
            },
            "rank": 36
          }
        },
        "name": "PARAM_ADLBC"
      }
    ],
    "PARAM_ADLBH": [
      {
        "dataType": "text",
        "codeListItem": {
          "Anisocytes": {
            "decode": {
              "schema:PropertyValue": {
                "lang": "en",
                "value": "Anisocytes"
              }
            },
            "rank": 1
          },
          "Basophils (GI/L)": {
            "decode": {
              "schema:PropertyValue": {
                "lang": "en",
                "value": "Basophils (GI/L)"
              }
            },
            "rank": 2
          },
          "Eosinophils (GI/L)": {
            "decode": {
              "schema:PropertyValue": {
                "lang": "en",
                "value": "Eosinophils (GI/L)"
              }
            },
            "rank": 3
          },
          "Hematocrit": {
            "decode": {
              "schema:PropertyValue": {
                "lang": "en",
                "value": "Hematocrit"
              }
            },
            "rank": 4
          },
          "Hemoglobin (mmol/L)": {
            "decode": {
              "schema:PropertyValue": {
                "lang": "en",
                "value": "Hemoglobin (mmol/L)"
              }
            },
            "rank": 5
          },
          "Lymphocytes (GI/L)": {
            "decode": {
              "schema:PropertyValue": {
                "lang": "en",
                "value": "Lymphocytes (GI/L)"
              }
            },
            "rank": 6
          },
          "Macrocytes": {
            "decode": {
              "schema:PropertyValue": {
                "lang": "en",
                "value": "Macrocytes"
              }
            },
            "rank": 7
          },
          "Ery. Mean Corpuscular Hemoglobin (fmol(Fe))": {
            "decode": {
              "schema:PropertyValue": {
                "lang": "en",
                "value": "Ery. Mean Corpuscular Hemoglobin (fmol(Fe))"
              }
            },
            "rank": 8
          },
          "Ery. Mean Corpuscular HGB Concentration (mmol/L)": {
            "decode": {
              "schema:PropertyValue": {
                "lang": "en",
                "value": "Ery. Mean Corpuscular HGB Concentration (mmol/L)"
              }
            },
            "rank": 9
          },
          "Ery. Mean Corpuscular Volume (fL)": {
            "decode": {
              "schema:PropertyValue": {
                "lang": "en",
                "value": "Ery. Mean Corpuscular Volume (fL)"
              }
            },
            "rank": 10
          },
          "Microcytes": {
            "decode": {
              "schema:PropertyValue": {
                "lang": "en",
                "value": "Microcytes"
              }
            },
            "rank": 11
          },
          "Monocytes (GI/L)": {
            "decode": {
              "schema:PropertyValue": {
                "lang": "en",
                "value": "Monocytes (GI/L)"
              }
            },
            "rank": 12
          },
          "Platelet (GI/L)": {
            "decode": {
              "schema:PropertyValue": {
                "lang": "en",
                "value": "Platelet (GI/L)"
              }
            },
            "rank": 13
          },
          "Poikilocytes": {
            "decode": {
              "schema:PropertyValue": {
                "lang": "en",
                "value": "Poikilocytes"
              }
            },
            "rank": 14
          },
          "Polychromasia": {
            "decode": {
              "schema:PropertyValue": {
                "lang": "en",
                "value": "Polychromasia"
              }
            },
            "rank": 15
          },
          "Erythrocytes (TI/L)": {
            "decode": {
              "schema:PropertyValue": {
                "lang": "en",
                "value": "Erythrocytes (TI/L)"
              }
            },
            "rank": 16
          },
          "Leukocytes (GI/L)": {
            "decode": {
              "schema:PropertyValue": {
                "lang": "en",
                "value": "Leukocytes (GI/L)"
              }
            },
            "rank": 17
          },
          "Anisocytes change from previous visit, relative to normal range": {
            "decode": {
              "schema:PropertyValue": {
                "lang": "en",
                "value": "Anisocytes change from previous visit, relative to normal range"
              }
            },
            "rank": 18
          },
          "Basophils (GI/L) change from previous visit, relative to normal range": {
            "decode": {
              "schema:PropertyValue": {
                "lang": "en",
                "value": "Basophils (GI/L) change from previous visit, relative to normal range"
              }
            },
            "rank": 19
          },
          "Eosinophils (GI/L) change from previous visit, relative to normal range": {
            "decode": {
              "schema:PropertyValue": {
                "lang": "en",
                "value": "Eosinophils (GI/L) change from previous visit, relative to normal range"
              }
            },
            "rank": 20
          },
          "Hematocrit change from previous visit, relative to normal range": {
            "decode": {
              "schema:PropertyValue": {
                "lang": "en",
                "value": "Hematocrit change from previous visit, relative to normal range"
              }
            },
            "rank": 21
          },
          "Hemoglobin (mmol/L) change from previous visit, relative to normal range": {
            "decode": {
              "schema:PropertyValue": {
                "lang": "en",
                "value": "Hemoglobin (mmol/L) change from previous visit, relative to normal range"
              }
            },
            "rank": 22
          },
          "Lymphocytes (GI/L) change from previous visit, relative to normal range": {
            "decode": {
              "schema:PropertyValue": {
                "lang": "en",
                "value": "Lymphocytes (GI/L) change from previous visit, relative to normal range"
              }
            },
            "rank": 23
          },
          "Macrocytes change from previous visit, relative to normal range": {
            "decode": {
              "schema:PropertyValue": {
                "lang": "en",
                "value": "Macrocytes change from previous visit, relative to normal range"
              }
            },
            "rank": 24
          },
          "Ery. Mean Corpuscular Hemoglobin (fmol(Fe)) change from previous visit, relative to normal range": {
            "decode": {
              "schema:PropertyValue": {
                "lang": "en",
                "value": "Ery. Mean Corpuscular Hemoglobin (fmol(Fe)) change from previous visit, relative to normal range"
              }
            },
            "rank": 25
          },
          "Ery. Mean Corpuscular HGB Concentration (mmol/L) change from previous visit, relative to normal rang": {
            "decode": {
              "schema:PropertyValue": {
                "lang": "en",
                "value": "Ery. Mean Corpuscular HGB Concentration (mmol/L) change from previous visit, relative to normal rang"
              }
            },
            "rank": 26
          },
          "Ery. Mean Corpuscular Volume (fL) change from previous visit, relative to normal range": {
            "decode": {
              "schema:PropertyValue": {
                "lang": "en",
                "value": "Ery. Mean Corpuscular Volume (fL) change from previous visit, relative to normal range"
              }
            },
            "rank": 27
          },
          "Microcytes change from previous visit, relative to normal range": {
            "decode": {
              "schema:PropertyValue": {
                "lang": "en",
                "value": "Microcytes change from previous visit, relative to normal range"
              }
            },
            "rank": 28
          },
          "Monocytes (GI/L) change from previous visit, relative to normal range": {
            "decode": {
              "schema:PropertyValue": {
                "lang": "en",
                "value": "Monocytes (GI/L) change from previous visit, relative to normal range"
              }
            },
            "rank": 29
          },
          "Platelet (GI/L) change from previous visit, relative to normal range": {
            "decode": {
              "schema:PropertyValue": {
                "lang": "en",
                "value": "Platelet (GI/L) change from previous visit, relative to normal range"
              }
            },
            "rank": 30
          },
          "Poikilocytes change from previous visit, relative to normal range": {
            "decode": {
              "schema:PropertyValue": {
                "lang": "en",
                "value": "Poikilocytes change from previous visit, relative to normal range"
              }
            },
            "rank": 31
          },
          "Polychromasia change from previous visit, relative to normal range": {
            "decode": {
              "schema:PropertyValue": {
                "lang": "en",
                "value": "Polychromasia change from previous visit, relative to normal range"
              }
            },
            "rank": 32
          },
          "Erythrocytes (TI/L) change from previous visit, relative to normal range": {
            "decode": {
              "schema:PropertyValue": {
                "lang": "en",
                "value": "Erythrocytes (TI/L) change from previous visit, relative to normal range"
              }
            },
            "rank": 33
          },
          "Leukocytes (GI/L) change from previous visit, relative to normal range": {
            "decode": {
              "schema:PropertyValue": {
                "lang": "en",
                "value": "Leukocytes (GI/L) change from previous visit, relative to normal range"
              }
            },
            "rank": 34
          }
        },
        "name": "PARAM_ADLBH"
      }
    ],
    "PARAM_ADLBHY": [
      {
        "dataType": "text",
        "codeListItem": {
          "Alanine Aminotransferase (U/L)": {
            "decode": {
              "schema:PropertyValue": {
                "lang": "en",
                "value": "Alanine Aminotransferase (U/L)"
              }
            },
            "rank": 1
          },
          "Aspartate Aminotransferase (U/L)": {
            "decode": {
              "schema:PropertyValue": {
                "lang": "en",
                "value": "Aspartate Aminotransferase (U/L)"
              }
            },
            "rank": 2
          },
          "Bilirubin (umol/L)": {
            "decode": {
              "schema:PropertyValue": {
                "lang": "en",
                "value": "Bilirubin (umol/L)"
              }
            },
            "rank": 3
          },
          "Bilirubin 1.5 x ULN": {
            "decode": {
              "schema:PropertyValue": {
                "lang": "en",
                "value": "Bilirubin 1.5 x ULN"
              }
            },
            "rank": 4
          },
          "Transaminase 1.5 x ULN": {
            "decode": {
              "schema:PropertyValue": {
                "lang": "en",
                "value": "Transaminase 1.5 x ULN"
              }
            },
            "rank": 5
          },
          "Total Bili 1.5 x ULN and Transaminase 1.5 x ULN": {
            "decode": {
              "schema:PropertyValue": {
                "lang": "en",
                "value": "Total Bili 1.5 x ULN and Transaminase 1.5 x ULN"
              }
            },
            "rank": 6
          }
        },
        "name": "PARAM_ADLBHY"
      }
    ],
    "PARAM_ADQSADAS": [
      {
        "dataType": "text",
        "codeListItem": {
          "Word Recall Task": {
            "decode": {
              "schema:PropertyValue": {
                "lang": "en",
                "value": "Word Recall Task"
              }
            },
            "rank": 1
          },
          "Naming Objects And Fingers (Refer To 5 C": {
            "decode": {
              "schema:PropertyValue": {
                "lang": "en",
                "value": "Naming Objects And Fingers (Refer To 5 C"
              }
            },
            "rank": 2
          },
          "Delayed Word Recall": {
            "decode": {
              "schema:PropertyValue": {
                "lang": "en",
                "value": "Delayed Word Recall"
              }
            },
            "rank": 3
          },
          "Commands": {
            "decode": {
              "schema:PropertyValue": {
                "lang": "en",
                "value": "Commands"
              }
            },
            "rank": 4
          },
          "Constructional Praxis": {
            "decode": {
              "schema:PropertyValue": {
                "lang": "en",
                "value": "Constructional Praxis"
              }
            },
            "rank": 5
          },
          "Ideational Praxis": {
            "decode": {
              "schema:PropertyValue": {
                "lang": "en",
                "value": "Ideational Praxis"
              }
            },
            "rank": 6
          },
          "Orientation": {
            "decode": {
              "schema:PropertyValue": {
                "lang": "en",
                "value": "Orientation"
              }
            },
            "rank": 7
          },
          "Word Recognition": {
            "decode": {
              "schema:PropertyValue": {
                "lang": "en",
                "value": "Word Recognition"
              }
            },
            "rank": 8
          },
          "Attention/Visual Search Task": {
            "decode": {
              "schema:PropertyValue": {
                "lang": "en",
                "value": "Attention/Visual Search Task"
              }
            },
            "rank": 9
          },
          "Maze Solution": {
            "decode": {
              "schema:PropertyValue": {
                "lang": "en",
                "value": "Maze Solution"
              }
            },
            "rank": 10
          },
          "Spoken Language Ability": {
            "decode": {
              "schema:PropertyValue": {
                "lang": "en",
                "value": "Spoken Language Ability"
              }
            },
            "rank": 11
          },
          "Comprehension Of Spoken Language": {
            "decode": {
              "schema:PropertyValue": {
                "lang": "en",
                "value": "Comprehension Of Spoken Language"
              }
            },
            "rank": 12
          },
          "Word Finding Difficulty In Spontaneous S": {
            "decode": {
              "schema:PropertyValue": {
                "lang": "en",
                "value": "Word Finding Difficulty In Spontaneous S"
              }
            },
            "rank": 13
          },
          "Recall Of Test Instructions": {
            "decode": {
              "schema:PropertyValue": {
                "lang": "en",
                "value": "Recall Of Test Instructions"
              }
            },
            "rank": 14
          },
          "Adas-Cog(11) Subscore": {
            "decode": {
              "schema:PropertyValue": {
                "lang": "en",
                "value": "Adas-Cog(11) Subscore"
              }
            },
            "rank": 15
          }
        },
        "name": "PARAM_ADQSADAS"
      }
    ],
    "PARAM_ADQSCIBC": [
      {
        "dataType": "text",
        "codeListItem": {
          "CIBIC Score": {
            "decode": {
              "schema:PropertyValue": {
                "lang": "en",
                "value": "CIBIC Score"
              }
            },
            "rank": 1
          }
        },
        "name": "PARAM_ADQSCIBC"
      }
    ],
    "PARAM_ADQSNPIX": [
      {
        "dataType": "text",
        "codeListItem": {
          "NPI-X Item A (Delusion) Score": {
            "decode": {
              "schema:PropertyValue": {
                "lang": "en",
                "value": "NPI-X Item A (Delusion) Score"
              }
            },
            "rank": 1
          },
          "NPI-X Item B (Hallucination) Score": {
            "decode": {
              "schema:PropertyValue": {
                "lang": "en",
                "value": "NPI-X Item B (Hallucination) Score"
              }
            },
            "rank": 2
          },
          "NPI-X Item C (Agitation/Agression) Score": {
            "decode": {
              "schema:PropertyValue": {
                "lang": "en",
                "value": "NPI-X Item C (Agitation/Agression) Score"
              }
            },
            "rank": 3
          },
          "NPI-X Item D (Depression/Dysphoria) Score": {
            "decode": {
              "schema:PropertyValue": {
                "lang": "en",
                "value": "NPI-X Item D (Depression/Dysphoria) Score"
              }
            },
            "rank": 4
          },
          "NPI-X Item E (Anxiety) Score": {
            "decode": {
              "schema:PropertyValue": {
                "lang": "en",
                "value": "NPI-X Item E (Anxiety) Score"
              }
            },
            "rank": 5
          },
          "NPI-X Item F (Eupohoria/Elation) Score": {
            "decode": {
              "schema:PropertyValue": {
                "lang": "en",
                "value": "NPI-X Item F (Eupohoria/Elation) Score"
              }
            },
            "rank": 6
          },
          "NPI-X Item G (Apathy/Indifference) Score": {
            "decode": {
              "schema:PropertyValue": {
                "lang": "en",
                "value": "NPI-X Item G (Apathy/Indifference) Score"
              }
            },
            "rank": 7
          },
          "NPI-X Item H (Disinhibition) Score": {
            "decode": {
              "schema:PropertyValue": {
                "lang": "en",
                "value": "NPI-X Item H (Disinhibition) Score"
              }
            },
            "rank": 8
          },
          "NPI-X Item I (Irritability/Lability) Score": {
            "decode": {
              "schema:PropertyValue": {
                "lang": "en",
                "value": "NPI-X Item I (Irritability/Lability) Score"
              }
            },
            "rank": 9
          },
          "NPI-X Item J (Aberrant Motor Behavior) Score": {
            "decode": {
              "schema:PropertyValue": {
                "lang": "en",
                "value": "NPI-X Item J (Aberrant Motor Behavior) Score"
              }
            },
            "rank": 10
          },
          "NPI-X Item K (Night-time Behavior) Score": {
            "decode": {
              "schema:PropertyValue": {
                "lang": "en",
                "value": "NPI-X Item K (Night-time Behavior) Score"
              }
            },
            "rank": 11
          },
          "NPI-X Item L (Appetite/Eating Change) Score": {
            "decode": {
              "schema:PropertyValue": {
                "lang": "en",
                "value": "NPI-X Item L (Appetite/Eating Change) Score"
              }
            },
            "rank": 12
          },
          "NPI-X (9) Total Score": {
            "decode": {
              "schema:PropertyValue": {
                "lang": "en",
                "value": "NPI-X (9) Total Score"
              }
            },
            "rank": 13
          },
          "Mean NPI-X (9) Total (Week 4 to 24)": {
            "decode": {
              "schema:PropertyValue": {
                "lang": "en",
                "value": "Mean NPI-X (9) Total (Week 4 to 24)"
              }
            },
            "rank": 14
          }
        },
        "name": "PARAM_ADQSNPIX"
      }
    ],
    "PARAM_ADTTE": [
      {
        "dataType": "text",
        "codeListItem": {
          "Time to First Dermatologic Event": {
            "decode": {
              "schema:PropertyValue": {
                "lang": "en",
                "value": "Time to Derm. Event or End of Study"
              }
            },
            "rank": 1
          }
        },
        "name": "PARAM_ADTTE"
      }
    ],
    "PARAM_ADVS": [
      {
        "dataType": "text",
        "codeListItem": {
          "Systolic Blood Pressure (mmHg)": {
            "decode": {
              "schema:PropertyValue": {
                "lang": "en",
                "value": "Systolic Blood Pressure (mmHg)"
              }
            },
            "rank": 1
          },
          "Diastolic Blood Pressure (mmHg)": {
            "decode": {
              "schema:PropertyValue": {
                "lang": "en",
                "value": "Diastolic Blood Pressure (mmHg)"
              }
            },
            "rank": 2
          },
          "Pulse Rate (BEATS/MIN)": {
            "decode": {
              "schema:PropertyValue": {
                "lang": "en",
                "value": "Pulse Rate (BEATS/MIN)"
              }
            },
            "rank": 3
          },
          "Weight (kg)": {
            "decode": {
              "schema:PropertyValue": {
                "lang": "en",
                "value": "Weight (kg)"
              }
            },
            "rank": 4
          },
          "Height (cm)": {
            "decode": {
              "schema:PropertyValue": {
                "lang": "en",
                "value": "Height (cm)"
              }
            },
            "rank": 5
          },
          "Temperature (C)": {
            "decode": {
              "schema:PropertyValue": {
                "lang": "en",
                "value": "Temperature (C)"
              }
            },
            "rank": 6
          }
        },
        "name": "PARAM_ADVS"
      }
    ],
    "RACE": [
      {
        "dataType": "text",
        "codeListItem": {
          "WHITE": {
            "decode": {
              "schema:PropertyValue": {
                "lang": "en",
                "value": "WHITE"
              }
            },
            "rank": 1
          },
          "BLACK OR AFRICAN AMERICAN": {
            "decode": {
              "schema:PropertyValue": {
                "lang": "en",
                "value": "BLACK OR AFRICAN AMERICAN"
              }
            },
            "rank": 2
          },
          "AMERICAN INDIAN OR ALASKA NATIVE": {
            "decode": {
              "schema:PropertyValue": {
                "lang": "en",
                "value": "AMERICAN INDIAN OR ALASKA NATIVE"
              }
            },
            "rank": 3
          },
          "ASIAN": {
            "decode": {
              "schema:PropertyValue": {
                "lang": "en",
                "value": "ASIAN"
              }
            },
            "rank": 4
          }
        },
        "name": "RACE"
      }
    ],
    "RACEN": [
      {
        "dataType": "integer",
        "codeListItem": {
          "1": {
            "decode": {
              "schema:PropertyValue": {
                "lang": "en",
                "value": "WHITE"
              }
            },
            "rank": 1
          },
          "2": {
            "decode": {
              "schema:PropertyValue": {
                "lang": "en",
                "value": "BLACK OR AFRICAN AMERICAN"
              }
            },
            "rank": 2
          },
          "6": {
            "decode": {
              "schema:PropertyValue": {
                "lang": "en",
                "value": "AMERICAN INDIAN OR ALASKA NATIVE"
              }
            },
            "rank": 3
          },
          "7": {
            "decode": {
              "schema:PropertyValue": {
                "lang": "en",
                "value": "ASIAN"
              }
            },
            "rank": 4
          }
        },
        "name": "RACEN"
      }
    ],
    "SEV": [
      {
        "dataType": "text",
        "codeListItem": {
          "MILD": {
            "decode": {
              "schema:PropertyValue": {
                "lang": "en",
                "value": "MILD"
              }
            },
            "rank": 1
          },
          "MODERATE": {
            "decode": {
              "schema:PropertyValue": {
                "lang": "en",
                "value": "MODERATE"
              }
            },
            "rank": 2
          },
          "SEVERE": {
            "decode": {
              "schema:PropertyValue": {
                "lang": "en",
                "value": "SEVERE"
              }
            },
            "rank": 3
          }
        },
        "name": "SEV"
      }
    ],
    "SEX": [
      {
        "dataType": "text",
        "codeListItem": {
          "F": {
            "decode": {
              "schema:PropertyValue": {
                "lang": "en",
                "value": "Female  "
              }
            },
            "rank": 1
          },
          "U": {
            "decode": {
              "schema:PropertyValue": {
                "lang": "en",
                "value": "Unknown  "
              }
            },
            "rank": 3
          }
        },
        "name": "SEX"
      }
    ],
    "SHIFT": [
      {
        "dataType": "text",
        "codeListItem": {
          "High to Normal": {
            "decode": {
              "schema:PropertyValue": {
                "lang": "en",
                "value": "High to Normal"
              }
            },
            "rank": 1
          },
          "Normal to Normal": {
            "decode": {
              "schema:PropertyValue": {
                "lang": "en",
                "value": "Normal to Normal"
              }
            },
            "rank": 2
          },
          "Normal to High": {
            "decode": {
              "schema:PropertyValue": {
                "lang": "en",
                "value": "Normal to High"
              }
            },
            "rank": 3
          }
        },
        "name": "SHIFT"
      }
    ],
    "SHIFTN": [
      {
        "dataType": "integer",
        "codeListItem": {
          "0": {
            "decode": {
              "schema:PropertyValue": {
                "lang": "en",
                "value": "High to Normal"
              }
            },
            "rank": 1
          },
          "1": {
            "decode": {
              "schema:PropertyValue": {
                "lang": "en",
                "value": "Normal to Normal"
              }
            },
            "rank": 2
          },
          "2": {
            "decode": {
              "schema:PropertyValue": {
                "lang": "en",
                "value": "Normal to High"
              }
            },
            "rank": 3
          }
        },
        "name": "SHIFTN"
      }
    ],
    "VISIT": [
      {
        "dataType": "text",
        "codeListItem": {
          "SCREENING 1": {
            "decode": {
              "schema:PropertyValue": {
                "lang": "en",
                "value": "SCREENING 1"
              }
            },
            "rank": 1
          },
          "UNSCHEDULED 1.1": {
            "decode": {
              "schema:PropertyValue": {
                "lang": "en",
                "value": "UNSCHEDULED 1.1"
              }
            },
            "rank": 2
          },
          "UNSCHEDULED 1.2": {
            "decode": {
              "schema:PropertyValue": {
                "lang": "en",
                "value": "UNSCHEDULED 1.2"
              }
            },
            "rank": 3
          },
          "UNSCHEDULED 1.3": {
            "decode": {
              "schema:PropertyValue": {
                "lang": "en",
                "value": "UNSCHEDULED 1.3"
              }
            },
            "rank": 4
          },
          "SCREENING 2": {
            "decode": {
              "schema:PropertyValue": {
                "lang": "en",
                "value": "SCREENING 2"
              }
            },
            "rank": 5
          },
          "BASELINE": {
            "decode": {
              "schema:PropertyValue": {
                "lang": "en",
                "value": "BASELINE"
              }
            },
            "rank": 6
          },
          "UNSCHEDULED 3.1": {
            "decode": {
              "schema:PropertyValue": {
                "lang": "en",
                "value": "UNSCHEDULED 3.1"
              }
            },
            "rank": 7
          },
          "AMBUL ECG PLACEMENT": {
            "decode": {
              "schema:PropertyValue": {
                "lang": "en",
                "value": "AMBUL ECG PLACEMENT"
              }
            },
            "rank": 8
          },
          "WEEK 2": {
            "decode": {
              "schema:PropertyValue": {
                "lang": "en",
                "value": "WEEK 2"
              }
            },
            "rank": 9
          },
          "UNSCHEDULED 4.1": {
            "decode": {
              "schema:PropertyValue": {
                "lang": "en",
                "value": "UNSCHEDULED 4.1"
              }
            },
            "rank": 10
          },
          "UNSCHEDULED 4.2": {
            "decode": {
              "schema:PropertyValue": {
                "lang": "en",
                "value": "UNSCHEDULED 4.2"
              }
            },
            "rank": 11
          },
          "WEEK 4": {
            "decode": {
              "schema:PropertyValue": {
                "lang": "en",
                "value": "WEEK 4"
              }
            },
            "rank": 12
          },
          "UNSCHEDULED 5.1": {
            "decode": {
              "schema:PropertyValue": {
                "lang": "en",
                "value": "UNSCHEDULED 5.1"
              }
            },
            "rank": 13
          },
          "AMBUL ECG REMOVAL": {
            "decode": {
              "schema:PropertyValue": {
                "lang": "en",
                "value": "AMBUL ECG REMOVAL"
              }
            },
            "rank": 14
          },
          "UNSCHEDULED 6.1": {
            "decode": {
              "schema:PropertyValue": {
                "lang": "en",
                "value": "UNSCHEDULED 6.1"
              }
            },
            "rank": 15
          },
          "WEEK 6": {
            "decode": {
              "schema:PropertyValue": {
                "lang": "en",
                "value": "WEEK 6"
              }
            },
            "rank": 16
          },
          "UNSCHEDULED 7.1": {
            "decode": {
              "schema:PropertyValue": {
                "lang": "en",
                "value": "UNSCHEDULED 7.1"
              }
            },
            "rank": 17
          },
          "WEEK 8": {
            "decode": {
              "schema:PropertyValue": {
                "lang": "en",
                "value": "WEEK 8"
              }
            },
            "rank": 18
          },
          "WEEK 10 (T)": {
            "decode": {
              "schema:PropertyValue": {
                "lang": "en",
                "value": "WEEK 10 (T)"
              }
            },
            "rank": 19
          },
          "UNSCHEDULED 8.2": {
            "decode": {
              "schema:PropertyValue": {
                "lang": "en",
                "value": "UNSCHEDULED 8.2"
              }
            },
            "rank": 20
          },
          "WEEK 12": {
            "decode": {
              "schema:PropertyValue": {
                "lang": "en",
                "value": "WEEK 12"
              }
            },
            "rank": 21
          },
          "WEEK 14 (T)": {
            "decode": {
              "schema:PropertyValue": {
                "lang": "en",
                "value": "WEEK 14 (T)"
              }
            },
            "rank": 22
          },
          "UNSCHEDULED 9.2": {
            "decode": {
              "schema:PropertyValue": {
                "lang": "en",
                "value": "UNSCHEDULED 9.2"
              }
            },
            "rank": 23
          },
          "UNSCHEDULED 9.3": {
            "decode": {
              "schema:PropertyValue": {
                "lang": "en",
                "value": "UNSCHEDULED 9.3"
              }
            },
            "rank": 24
          },
          "WEEK 16": {
            "decode": {
              "schema:PropertyValue": {
                "lang": "en",
                "value": "WEEK 16"
              }
            },
            "rank": 25
          },
          "WEEK 18 (T)": {
            "decode": {
              "schema:PropertyValue": {
                "lang": "en",
                "value": "WEEK 18 (T)"
              }
            },
            "rank": 26
          },
          "UNSCHEDULED 10.2": {
            "decode": {
              "schema:PropertyValue": {
                "lang": "en",
                "value": "UNSCHEDULED 10.2"
              }
            },
            "rank": 27
          },
          "WEEK 20": {
            "decode": {
              "schema:PropertyValue": {
                "lang": "en",
                "value": "WEEK 20"
              }
            },
            "rank": 28
          },
          "WEEK 22 (T)": {
            "decode": {
              "schema:PropertyValue": {
                "lang": "en",
                "value": "WEEK 22 (T)"
              }
            },
            "rank": 29
          },
          "UNSCHEDULED 11.2": {
            "decode": {
              "schema:PropertyValue": {
                "lang": "en",
                "value": "UNSCHEDULED 11.2"
              }
            },
            "rank": 30
          },
          "WEEK 24": {
            "decode": {
              "schema:PropertyValue": {
                "lang": "en",
                "value": "WEEK 24"
              }
            },
            "rank": 31
          },
          "UNSCHEDULED 12.1": {
            "decode": {
              "schema:PropertyValue": {
                "lang": "en",
                "value": "UNSCHEDULED 12.1"
              }
            },
            "rank": 32
          },
          "WEEK 26": {
            "decode": {
              "schema:PropertyValue": {
                "lang": "en",
                "value": "WEEK 26"
              }
            },
            "rank": 33
          },
          "UNSCHEDULED 13.1": {
            "decode": {
              "schema:PropertyValue": {
                "lang": "en",
                "value": "UNSCHEDULED 13.1"
              }
            },
            "rank": 34
          },
          "AE FOLLOW-UP": {
            "decode": {
              "schema:PropertyValue": {
                "lang": "en",
                "value": "AE FOLLOW-UP"
              }
            },
            "rank": 35
          },
          "RETRIEVAL": {
            "decode": {
              "schema:PropertyValue": {
                "lang": "en",
                "value": "RETRIEVAL"
              }
            },
            "rank": 36
          },
          "Rash followup": {
            "decode": {
              "schema:PropertyValue": {
                "lang": "en",
                "value": "Rash followup"
              }
            },
            "rank": 37
          }
        },
        "name": "VISIT"
      }
    ],
    "VISITNUM": [
      {
        "dataType": "float",
        "codeListItem": {
          "1": {
            "decode": {
              "schema:PropertyValue": {
                "lang": "en",
                "value": "SCREENING 1"
              }
            },
            "rank": 1
          },
          "2": {
            "decode": {
              "schema:PropertyValue": {
                "lang": "en",
                "value": "SCREENING 2"
              }
            },
            "rank": 5
          },
          "3": {
            "decode": {
              "schema:PropertyValue": {
                "lang": "en",
                "value": "BASELINE"
              }
            },
            "rank": 6
          },
          "4": {
            "decode": {
              "schema:PropertyValue": {
                "lang": "en",
                "value": "WEEK 2"
              }
            },
            "rank": 9
          },
          "5": {
            "decode": {
              "schema:PropertyValue": {
                "lang": "en",
                "value": "WEEK 4"
              }
            },
            "rank": 12
          },
          "6": {
            "decode": {
              "schema:PropertyValue": {
                "lang": "en",
                "value": "AMBUL ECG REMOVAL"
              }
            },
            "rank": 14
          },
          "7": {
            "decode": {
              "schema:PropertyValue": {
                "lang": "en",
                "value": "WEEK 6"
              }
            },
            "rank": 16
          },
          "8": {
            "decode": {
              "schema:PropertyValue": {
                "lang": "en",
                "value": "WEEK 8"
              }
            },
            "rank": 18
          },
          "9": {
            "decode": {
              "schema:PropertyValue": {
                "lang": "en",
                "value": "WEEK 12"
              }
            },
            "rank": 21
          },
          "10": {
            "decode": {
              "schema:PropertyValue": {
                "lang": "en",
                "value": "WEEK 16"
              }
            },
            "rank": 25
          },
          "11": {
            "decode": {
              "schema:PropertyValue": {
                "lang": "en",
                "value": "WEEK 20"
              }
            },
            "rank": 28
          },
          "12": {
            "decode": {
              "schema:PropertyValue": {
                "lang": "en",
                "value": "WEEK 24"
              }
            },
            "rank": 31
          },
          "13": {
            "decode": {
              "schema:PropertyValue": {
                "lang": "en",
                "value": "WEEK 26"
              }
            },
            "rank": 33
          },
          "101": {
            "decode": {
              "schema:PropertyValue": {
                "lang": "en",
                "value": "AE FOLLOW-UP"
              }
            },
            "rank": 35
          },
          "201": {
            "decode": {
              "schema:PropertyValue": {
                "lang": "en",
                "value": "RETRIEVAL"
              }
            },
            "rank": 36
          },
          "501": {
            "decode": {
              "schema:PropertyValue": {
                "lang": "en",
                "value": "Rash followup"
              }
            },
            "rank": 37
          },
          "1.1": {
            "decode": {
              "schema:PropertyValue": {
                "lang": "en",
                "value": "UNSCHEDULED 1.1"
              }
            },
            "rank": 2
          },
          "1.2": {
            "decode": {
              "schema:PropertyValue": {
                "lang": "en",
                "value": "UNSCHEDULED 1.2"
              }
            },
            "rank": 3
          },
          "1.3": {
            "decode": {
              "schema:PropertyValue": {
                "lang": "en",
                "value": "UNSCHEDULED 1.3"
              }
            },
            "rank": 4
          },
          "3.1": {
            "decode": {
              "schema:PropertyValue": {
                "lang": "en",
                "value": "UNSCHEDULED 3.1"
              }
            },
            "rank": 7
          },
          "3.5": {
            "decode": {
              "schema:PropertyValue": {
                "lang": "en",
                "value": "AMBUL ECG PLACEMENT"
              }
            },
            "rank": 8
          },
          "4.1": {
            "decode": {
              "schema:PropertyValue": {
                "lang": "en",
                "value": "UNSCHEDULED 4.1"
              }
            },
            "rank": 10
          },
          "4.2": {
            "decode": {
              "schema:PropertyValue": {
                "lang": "en",
                "value": "UNSCHEDULED 4.2"
              }
            },
            "rank": 11
          },
          "5.1": {
            "decode": {
              "schema:PropertyValue": {
                "lang": "en",
                "value": "UNSCHEDULED 5.1"
              }
            },
            "rank": 13
          },
          "6.1": {
            "decode": {
              "schema:PropertyValue": {
                "lang": "en",
                "value": "UNSCHEDULED 6.1"
              }
            },
            "rank": 15
          },
          "7.1": {
            "decode": {
              "schema:PropertyValue": {
                "lang": "en",
                "value": "UNSCHEDULED 7.1"
              }
            },
            "rank": 17
          },
          "8.1": {
            "decode": {
              "schema:PropertyValue": {
                "lang": "en",
                "value": "WEEK 10 (T)"
              }
            },
            "rank": 19
          },
          "8.2": {
            "decode": {
              "schema:PropertyValue": {
                "lang": "en",
                "value": "UNSCHEDULED 8.2"
              }
            },
            "rank": 20
          },
          "9.1": {
            "decode": {
              "schema:PropertyValue": {
                "lang": "en",
                "value": "WEEK 14 (T)"
              }
            },
            "rank": 22
          },
          "9.2": {
            "decode": {
              "schema:PropertyValue": {
                "lang": "en",
                "value": "UNSCHEDULED 9.2"
              }
            },
            "rank": 23
          },
          "9.3": {
            "decode": {
              "schema:PropertyValue": {
                "lang": "en",
                "value": "UNSCHEDULED 9.3"
              }
            },
            "rank": 24
          },
          "10.1": {
            "decode": {
              "schema:PropertyValue": {
                "lang": "en",
                "value": "WEEK 18 (T)"
              }
            },
            "rank": 26
          },
          "10.2": {
            "decode": {
              "schema:PropertyValue": {
                "lang": "en",
                "value": "UNSCHEDULED 10.2"
              }
            },
            "rank": 27
          },
          "11.1": {
            "decode": {
              "schema:PropertyValue": {
                "lang": "en",
                "value": "WEEK 22 (T)"
              }
            },
            "rank": 29
          },
          "11.2": {
            "decode": {
              "schema:PropertyValue": {
                "lang": "en",
                "value": "UNSCHEDULED 11.2"
              }
            },
            "rank": 30
          },
          "12.1": {
            "decode": {
              "schema:PropertyValue": {
                "lang": "en",
                "value": "UNSCHEDULED 12.1"
              }
            },
            "rank": 32
          },
          "13.1": {
            "decode": {
              "schema:PropertyValue": {
                "lang": "en",
                "value": "UNSCHEDULED 13.1"
              }
            },
            "rank": 34
          }
        },
        "name": "VISITNUM"
      }
    ],
    "YN": [
      {
        "dataType": "text",
        "codeListItem": {},
        "name": "YN"
      }
    ],
    "YNN": [
      {
        "dataType": "integer",
        "codeListItem": {
          "0": {
            "decode": {
              "schema:PropertyValue": {
                "lang": "en",
                "value": "No"
              }
            },
            "rank": 1
          },
          "1": {
            "decode": {
              "schema:PropertyValue": {
                "lang": "en",
                "value": "Yes"
              }
            },
            "rank": 2
          }
        },
        "name": "YNN"
      }
    ],
    "Y_BLANK": [
      {
        "dataType": "text",
        "codeListItem": {},
        "name": "Y_BLANK"
      }
    ],
    "AEDICT": [
      {
        "dataType": "text",
        "externalCodeList": {
          "dictionary": "MedDRA",
          "version": "8.0"
        },
        "name": "ADVERSE EVENT DICTIONARY"
      }
    ]
  },
  "itemDef": {
    "ADAE.STUDYID": [
      {
        "dataType": "text",
        "description": {
          "schema:PropertyValue": {
            "lang": "en",
            "value": "Study Identifier"
          }
        },
        "name": "STUDYID",
        "length": 12
      }
    ],
    "ADAE.SITEID": [
      {
        "dataType": "text",
        "description": {
          "schema:PropertyValue": {
            "lang": "en",
            "value": "Study Site Identifier"
          }
        },
        "name": "SITEID",
        "length": 3
      }
    ],
    "ADAE.USUBJID": [
      {
        "dataType": "text",
        "description": {
          "schema:PropertyValue": {
            "lang": "en",
            "value": "Unique Subject Identifier"
          }
        },
        "name": "USUBJID",
        "length": 11
      }
    ],
    "ADAE.TRTA": [
      {
        "dataType": "text",
        "codeListRef": {
          "codeListOID": "ARM"
        },
        "description": {
          "schema:PropertyValue": {
            "lang": "en",
            "value": "Actual Treatment"
          }
        },
        "name": "TRTA",
        "length": 20
      }
    ],
    "ADAE.TRTAN": [
      {
        "dataType": "integer",
        "codeListRef": {
          "codeListOID": "ARMN"
        },
        "description": {
          "schema:PropertyValue": {
            "lang": "en",
            "value": "Actual Treatment (N)"
          }
        },
        "name": "TRTAN",
        "length": 8
      }
    ],
    "ADAE.AGE": [
      {
        "dataType": "integer",
        "description": {
          "schema:PropertyValue": {
            "lang": "en",
            "value": "Age"
          }
        },
        "name": "AGE",
        "length": 8
      }
    ],
    "ADAE.AGEGR1": [
      {
        "dataType": "text",
        "codeListRef": {
          "codeListOID": "AGEGR1"
        },
        "description": {
          "schema:PropertyValue": {
            "lang": "en",
            "value": "Pooled Age Group 1"
          }
        },
        "name": "AGEGR1",
        "length": 5
      }
    ],
    "ADAE.AGEGR1N": [
      {
        "dataType": "integer",
        "codeListRef": {
          "codeListOID": "AGEGR1N"
        },
        "description": {
          "schema:PropertyValue": {
            "lang": "en",
            "value": "Pooled Age Group 1 (N)"
          }
        },
        "name": "AGEGR1N",
        "length": 8
      }
    ],
    "ADAE.RACE": [
      {
        "dataType": "text",
        "codeListRef": {
          "codeListOID": "RACE"
        },
        "description": {
          "schema:PropertyValue": {
            "lang": "en",
            "value": "Race"
          }
        },
        "name": "RACE",
        "length": 32
      }
    ],
    "ADAE.RACEN": [
      {
        "dataType": "integer",
        "codeListRef": {
          "codeListOID": "RACEN"
        },
        "description": {
          "schema:PropertyValue": {
            "lang": "en",
            "value": "Race (N)"
          }
        },
        "name": "RACEN",
        "length": 8
      }
    ],
    "ADAE.SEX": [
      {
        "dataType": "text",
        "codeListRef": {
          "codeListOID": "SEX"
        },
        "description": {
          "schema:PropertyValue": {
            "lang": "en",
            "value": "Sex"
          }
        },
        "name": "SEX",
        "length": 1
      }
    ],
    "ADAE.SAFFL": [
      {
        "dataType": "text",
        "codeListRef": {
          "codeListOID": "YN"
        },
        "description": {
          "schema:PropertyValue": {
            "lang": "en",
            "value": "Safety Population Flag"
          }
        },
        "name": "SAFFL",
        "length": 1
      }
    ],
    "ADAE.TRTSDT": [
      {
        "dataType": "integer",
        "description": {
          "schema:PropertyValue": {
            "lang": "en",
            "value": "Date of First Exposure to Treatment"
          }
        },
        "name": "TRTSDT",
        "length": 8
      }
    ],
    "ADAE.TRTEDT": [
      {
        "dataType": "integer",
        "description": {
          "schema:PropertyValue": {
            "lang": "en",
            "value": "Date of Last Exposure to Treatment"
          }
        },
        "name": "TRTEDT",
        "length": 8
      }
    ],
    "ADAE.ASTDT": [
      {
        "dataType": "integer",
        "description": {
          "schema:PropertyValue": {
            "lang": "en",
            "value": "Analysis Start Date"
          }
        },
        "name": "ASTDT",
        "length": 8
      }
    ],
    "ADAE.ASTDTF": [
      {
        "dataType": "text",
        "codeListRef": {
          "codeListOID": "DMY"
        },
        "description": {
          "schema:PropertyValue": {
            "lang": "en",
            "value": "Analysis Start Date Imputation Flag"
          }
        },
        "name": "ASTDTF",
        "length": 1
      }
    ],
    "ADAE.ASTDY": [
      {
        "dataType": "integer",
        "description": {
          "schema:PropertyValue": {
            "lang": "en",
            "value": "Analysis Start Relative Day"
          }
        },
        "name": "ASTDY",
        "length": 8
      }
    ],
    "ADAE.AENDT": [
      {
        "dataType": "integer",
        "description": {
          "schema:PropertyValue": {
            "lang": "en",
            "value": "Analysis End Date"
          }
        },
        "name": "AENDT",
        "length": 8
      }
    ],
    "ADAE.AENDY": [
      {
        "dataType": "integer",
        "description": {
          "schema:PropertyValue": {
            "lang": "en",
            "value": "Analysis End Relative Day"
          }
        },
        "name": "AENDY",
        "length": 8
      }
    ],
    "ADAE.ADURN": [
      {
        "dataType": "integer",
        "description": {
          "schema:PropertyValue": {
            "lang": "en",
            "value": "AE Duration (N)"
          }
        },
        "name": "ADURN",
        "length": 8
      }
    ],
    "ADAE.ADURU": [
      {
        "dataType": "text",
        "description": {
          "schema:PropertyValue": {
            "lang": "en",
            "value": "AE Duration Units"
          }
        },
        "name": "ADURU",
        "length": 3
      }
    ],
    "ADAE.AETERM": [
      {
        "dataType": "text",
        "description": {
          "schema:PropertyValue": {
            "lang": "en",
            "value": "Reported Term for the Adverse Event"
          }
        },
        "name": "AETERM",
        "length": 46
      }
    ],
    "ADAE.AELLT": [
      {
        "dataType": "text",
        "codeListRef": {
          "codeListOID": "AEDICT"
        },
        "description": {
          "schema:PropertyValue": {
            "lang": "en",
            "value": "Lowest Level Term"
          }
        },
        "name": "AELLT",
        "length": 46
      }
    ],
    "ADAE.AELLTCD": [
      {
        "dataType": "integer",
        "description": {
          "schema:PropertyValue": {
            "lang": "en",
            "value": "Lowest Level Term Code"
          }
        },
        "name": "AELLTCD",
        "length": 8
      }
    ],
    "ADAE.AEDECOD": [
      {
        "dataType": "text",
        "codeListRef": {
          "codeListOID": "AEDICT"
        },
        "description": {
          "schema:PropertyValue": {
            "lang": "en",
            "value": "Dictionary-Derived Term"
          }
        },
        "name": "AEDECOD",
        "length": 46
      }
    ],
    "ADAE.AEPTCD": [
      {
        "dataType": "integer",
        "description": {
          "schema:PropertyValue": {
            "lang": "en",
            "value": "Preferred Term Code"
          }
        },
        "name": "AEPTCD",
        "length": 8
      }
    ],
    "ADAE.AEHLT": [
      {
        "dataType": "text",
        "codeListRef": {
          "codeListOID": "AEDICT"
        },
        "description": {
          "schema:PropertyValue": {
            "lang": "en",
            "value": "High Level Term"
          }
        },
        "name": "AEHLT",
        "length": 8
      }
    ],
    "ADAE.AEHLTCD": [
      {
        "dataType": "integer",
        "description": {
          "schema:PropertyValue": {
            "lang": "en",
            "value": "High Level Term Code"
          }
        },
        "name": "AEHLTCD",
        "length": 8
      }
    ],
    "ADAE.AEHLGT": [
      {
        "dataType": "text",
        "codeListRef": {
          "codeListOID": "AEDICT"
        },
        "description": {
          "schema:PropertyValue": {
            "lang": "en",
            "value": "High Level Group Term"
          }
        },
        "name": "AEHLGT",
        "length": 9
      }
    ],
    "ADAE.AEHLGTCD": [
      {
        "dataType": "integer",
        "description": {
          "schema:PropertyValue": {
            "lang": "en",
            "value": "High Level Group Term Code"
          }
        },
        "name": "AEHLGTCD",
        "length": 8
      }
    ],
    "ADAE.AEBODSYS": [
      {
        "dataType": "text",
        "codeListRef": {
          "codeListOID": "AEDICT"
        },
        "description": {
          "schema:PropertyValue": {
            "lang": "en",
            "value": "Body System or Organ Class"
          }
        },
        "name": "AEBODSYS",
        "length": 67
      }
    ],
    "ADAE.AESOC": [
      {
        "dataType": "text",
        "codeListRef": {
          "codeListOID": "AEDICT"
        },
        "description": {
          "schema:PropertyValue": {
            "lang": "en",
            "value": "Primary System Organ Class"
          }
        },
        "name": "AESOC",
        "length": 67
      }
    ],
    "ADAE.AESOCCD": [
      {
        "dataType": "integer",
        "description": {
          "schema:PropertyValue": {
            "lang": "en",
            "value": "Primary System Organ Class Code"
          }
        },
        "name": "AESOCCD",
        "length": 8
      }
    ],
    "ADAE.AESEV": [
      {
        "dataType": "text",
        "codeListRef": {
          "codeListOID": "SEV"
        },
        "description": {
          "schema:PropertyValue": {
            "lang": "en",
            "value": "Severity/Intensity"
          }
        },
        "name": "AESEV",
        "length": 8
      }
    ],
    "ADAE.AESER": [
      {
        "dataType": "text",
        "codeListRef": {
          "codeListOID": "YN"
        },
        "description": {
          "schema:PropertyValue": {
            "lang": "en",
            "value": "Serious Event"
          }
        },
        "name": "AESER",
        "length": 1
      }
    ],
    "ADAE.AESCAN": [
      {
        "dataType": "text",
        "codeListRef": {
          "codeListOID": "YN"
        },
        "description": {
          "schema:PropertyValue": {
            "lang": "en",
            "value": "Involves Cancer"
          }
        },
        "name": "AESCAN",
        "length": 1
      }
    ],
    "ADAE.AESCONG": [
      {
        "dataType": "text",
        "codeListRef": {
          "codeListOID": "YN"
        },
        "description": {
          "schema:PropertyValue": {
            "lang": "en",
            "value": "Congenital Anomaly or Birth Defect"
          }
        },
        "name": "AESCONG",
        "length": 1
      }
    ],
    "ADAE.AESDISAB": [
      {
        "dataType": "text",
        "codeListRef": {
          "codeListOID": "YN"
        },
        "description": {
          "schema:PropertyValue": {
            "lang": "en",
            "value": "Persist or Signif Disability/Incapacity"
          }
        },
        "name": "AESDISAB",
        "length": 1
      }
    ],
    "ADAE.AESDTH": [
      {
        "dataType": "text",
        "codeListRef": {
          "codeListOID": "YN"
        },
        "description": {
          "schema:PropertyValue": {
            "lang": "en",
            "value": "Results in Death"
          }
        },
        "name": "AESDTH",
        "length": 1
      }
    ],
    "ADAE.AESHOSP": [
      {
        "dataType": "text",
        "codeListRef": {
          "codeListOID": "YN"
        },
        "description": {
          "schema:PropertyValue": {
            "lang": "en",
            "value": "Requires or Prolongs Hospitalization"
          }
        },
        "name": "AESHOSP",
        "length": 1
      }
    ],
    "ADAE.AESLIFE": [
      {
        "dataType": "text",
        "codeListRef": {
          "codeListOID": "YN"
        },
        "description": {
          "schema:PropertyValue": {
            "lang": "en",
            "value": "Is Life Threatening"
          }
        },
        "name": "AESLIFE",
        "length": 1
      }
    ],
    "ADAE.AESOD": [
      {
        "dataType": "text",
        "codeListRef": {
          "codeListOID": "YN"
        },
        "description": {
          "schema:PropertyValue": {
            "lang": "en",
            "value": "Occurred with Overdose"
          }
        },
        "name": "AESOD",
        "length": 1
      }
    ],
    "ADAE.AEREL": [
      {
        "dataType": "text",
        "codeListRef": {
          "codeListOID": "AECAUS"
        },
        "description": {
          "schema:PropertyValue": {
            "lang": "en",
            "value": "Causality"
          }
        },
        "name": "AEREL",
        "length": 8
      }
    ],
    "ADAE.AEACN": [
      {
        "dataType": "text",
        "description": {
          "schema:PropertyValue": {
            "lang": "en",
            "value": "Action Taken with Study Treatment"
          }
        },
        "name": "AEACN",
        "length": 1
      }
    ],
    "ADAE.AEOUT": [
      {
        "dataType": "text",
        "codeListRef": {
          "codeListOID": "OUT"
        },
        "description": {
          "schema:PropertyValue": {
            "lang": "en",
            "value": "Outcome of Adverse Event"
          }
        },
        "name": "AEOUT",
        "length": 26
      }
    ],
    "ADAE.AESEQ": [
      {
        "dataType": "integer",
        "description": {
          "schema:PropertyValue": {
            "lang": "en",
            "value": "Sequence Number"
          }
        },
        "name": "AESEQ",
        "length": 8
      }
    ],
    "ADAE.TRTEMFL": [
      {
        "dataType": "text",
        "codeListRef": {
          "codeListOID": "YN"
        },
        "description": {
          "schema:PropertyValue": {
            "lang": "en",
            "value": "Treatment Emergent Analysis Flag"
          }
        },
        "name": "TRTEMFL",
        "length": 1
      }
    ],
    "ADAE.AOCCFL": [
      {
        "dataType": "text",
        "codeListRef": {
          "codeListOID": "Y_BLANK"
        },
        "description": {
          "schema:PropertyValue": {
            "lang": "en",
            "value": "1st Occurrence of Any AE Flag"
          }
        },
        "name": "AOCCFL",
        "length": 1
      }
    ],
    "ADAE.AOCCSFL": [
      {
        "dataType": "text",
        "codeListRef": {
          "codeListOID": "Y_BLANK"
        },
        "description": {
          "schema:PropertyValue": {
            "lang": "en",
            "value": "1st Occurrence of SOC Flag"
          }
        },
        "name": "AOCCSFL",
        "length": 1
      }
    ],
    "ADAE.AOCCPFL": [
      {
        "dataType": "text",
        "codeListRef": {
          "codeListOID": "Y_BLANK"
        },
        "description": {
          "schema:PropertyValue": {
            "lang": "en",
            "value": "1st Occurrence of Preferred Term Flag"
          }
        },
        "name": "AOCCPFL",
        "length": 1
      }
    ],
    "ADAE.AOCC02FL": [
      {
        "dataType": "text",
        "codeListRef": {
          "codeListOID": "Y_BLANK"
        },
        "description": {
          "schema:PropertyValue": {
            "lang": "en",
            "value": "1st Occurrence 02 Flag for Serious"
          }
        },
        "name": "AOCC02FL",
        "length": 1
      }
    ],
    "ADAE.AOCC03FL": [
      {
        "dataType": "text",
        "codeListRef": {
          "codeListOID": "Y_BLANK"
        },
        "description": {
          "schema:PropertyValue": {
            "lang": "en",
            "value": "1st Occurrence 03 Flag for Serious SOC"
          }
        },
        "name": "AOCC03FL",
        "length": 1
      }
    ],
    "ADAE.AOCC04FL": [
      {
        "dataType": "text",
        "codeListRef": {
          "codeListOID": "Y_BLANK"
        },
        "description": {
          "schema:PropertyValue": {
            "lang": "en",
            "value": "1st Occurrence 04 Flag for Serious PT"
          }
        },
        "name": "AOCC04FL",
        "length": 1
      }
    ],
    "ADAE.CQ01NAM": [
      {
        "dataType": "text",
        "description": {
          "schema:PropertyValue": {
            "lang": "en",
            "value": "Customized Query 01 Name"
          }
        },
        "name": "CQ01NAM",
        "length": 19
      }
    ],
    "ADAE.AOCC01FL": [
      {
        "dataType": "text",
        "codeListRef": {
          "codeListOID": "Y_BLANK"
        },
        "description": {
          "schema:PropertyValue": {
            "lang": "en",
            "value": "1st Occurrence 01 Flag for CQ01"
          }
        },
        "name": "AOCC01FL",
        "length": 1
      }
    ],
    "ADLBC.STUDYID": [
      {
        "dataType": "text",
        "description": {
          "schema:PropertyValue": {
            "lang": "en",
            "value": "Study Identifier"
          }
        },
        "name": "STUDYID",
        "length": 12
      }
    ],
    "ADLBC.SUBJID": [
      {
        "dataType": "text",
        "description": {
          "schema:PropertyValue": {
            "lang": "en",
            "value": "Subject Identifier for the Study"
          }
        },
        "name": "SUBJID",
        "length": 4
      }
    ],
    "ADLBC.USUBJID": [
      {
        "dataType": "text",
        "description": {
          "schema:PropertyValue": {
            "lang": "en",
            "value": "Unique Subject Identifier"
          }
        },
        "name": "USUBJID",
        "length": 11
      }
    ],
    "ADLBC.TRTP": [
      {
        "dataType": "text",
        "codeListRef": {
          "codeListOID": "ARM"
        },
        "description": {
          "schema:PropertyValue": {
            "lang": "en",
            "value": "Planned Treatment"
          }
        },
        "name": "TRTP",
        "length": 20
      }
    ],
    "ADLBC.TRTPN": [
      {
        "dataType": "integer",
        "codeListRef": {
          "codeListOID": "ARMN"
        },
        "description": {
          "schema:PropertyValue": {
            "lang": "en",
            "value": "Planned Treatment (N)"
          }
        },
        "name": "TRTPN",
        "length": 8
      }
    ],
    "ADLBC.TRTA": [
      {
        "dataType": "text",
        "codeListRef": {
          "codeListOID": "ARM"
        },
        "description": {
          "schema:PropertyValue": {
            "lang": "en",
            "value": "Actual Treatment"
          }
        },
        "name": "TRTA",
        "length": 20
      }
    ],
    "ADLBC.TRTAN": [
      {
        "dataType": "integer",
        "codeListRef": {
          "codeListOID": "ARMN"
        },
        "description": {
          "schema:PropertyValue": {
            "lang": "en",
            "value": "Actual Treatment (N)"
          }
        },
        "name": "TRTAN",
        "length": 8
      }
    ],
    "ADLBC.TRTSDT": [
      {
        "dataType": "integer",
        "description": {
          "schema:PropertyValue": {
            "lang": "en",
            "value": "Date of First Exposure to Treatment"
          }
        },
        "name": "TRTSDT",
        "length": 8
      }
    ],
    "ADLBC.TRTEDT": [
      {
        "dataType": "integer",
        "description": {
          "schema:PropertyValue": {
            "lang": "en",
            "value": "Date of Last Exposure to Treatment"
          }
        },
        "name": "TRTEDT",
        "length": 8
      }
    ],
    "ADLBC.AGE": [
      {
        "dataType": "integer",
        "description": {
          "schema:PropertyValue": {
            "lang": "en",
            "value": "Age"
          }
        },
        "name": "AGE",
        "length": 8
      }
    ],
    "ADLBC.AGEGR1": [
      {
        "dataType": "text",
        "codeListRef": {
          "codeListOID": "AGEGR1"
        },
        "description": {
          "schema:PropertyValue": {
            "lang": "en",
            "value": "Pooled Age Group 1"
          }
        },
        "name": "AGEGR1",
        "length": 5
      }
    ],
    "ADLBC.AGEGR1N": [
      {
        "dataType": "integer",
        "codeListRef": {
          "codeListOID": "AGEGR1N"
        },
        "description": {
          "schema:PropertyValue": {
            "lang": "en",
            "value": "Pooled Age Group 1 (N)"
          }
        },
        "name": "AGEGR1N",
        "length": 8
      }
    ],
    "ADLBC.RACE": [
      {
        "dataType": "text",
        "codeListRef": {
          "codeListOID": "RACE"
        },
        "description": {
          "schema:PropertyValue": {
            "lang": "en",
            "value": "Race"
          }
        },
        "name": "RACE",
        "length": 32
      }
    ],
    "ADLBC.RACEN": [
      {
        "dataType": "integer",
        "codeListRef": {
          "codeListOID": "RACEN"
        },
        "description": {
          "schema:PropertyValue": {
            "lang": "en",
            "value": "Race (N)"
          }
        },
        "name": "RACEN",
        "length": 8
      }
    ],
    "ADLBC.SEX": [
      {
        "dataType": "text",
        "codeListRef": {
          "codeListOID": "SEX"
        },
        "description": {
          "schema:PropertyValue": {
            "lang": "en",
            "value": "Sex"
          }
        },
        "name": "SEX",
        "length": 1
      }
    ],
    "ADLBC.COMP24FL": [
      {
        "dataType": "text",
        "codeListRef": {
          "codeListOID": "YN"
        },
        "description": {
          "schema:PropertyValue": {
            "lang": "en",
            "value": "Completers of Week 24 Population Flag"
          }
        },
        "name": "COMP24FL",
        "length": 1
      }
    ],
    "ADLBC.DSRAEFL": [
      {
        "dataType": "text",
        "codeListRef": {
          "codeListOID": "YN"
        },
        "description": {
          "schema:PropertyValue": {
            "lang": "en",
            "value": "Discontinued due to AE?"
          }
        },
        "name": "DSRAEFL",
        "length": 1
      }
    ],
    "ADLBC.SAFFL": [
      {
        "dataType": "text",
        "codeListRef": {
          "codeListOID": "YN"
        },
        "description": {
          "schema:PropertyValue": {
            "lang": "en",
            "value": "Safety Population Flag"
          }
        },
        "name": "SAFFL",
        "length": 1
      }
    ],
    "ADLBC.AVISIT": [
      {
        "dataType": "text",
        "codeListRef": {
          "codeListOID": "AVISIT"
        },
        "description": {
          "schema:PropertyValue": {
            "lang": "en",
            "value": "Analysis Visit"
          }
        },
        "name": "AVISIT",
        "length": 16
      }
    ],
    "ADLBC.AVISITN": [
      {
        "dataType": "integer",
        "codeListRef": {
          "codeListOID": "AVISITN"
        },
        "description": {
          "schema:PropertyValue": {
            "lang": "en",
            "value": "Analysis Visit (N)"
          }
        },
        "name": "AVISITN",
        "length": 8
      }
    ],
    "ADLBC.ADY": [
      {
        "dataType": "integer",
        "description": {
          "schema:PropertyValue": {
            "lang": "en",
            "value": "Analysis Relative Day"
          }
        },
        "name": "ADY",
        "length": 8
      }
    ],
    "ADLBC.ADT": [
      {
        "dataType": "integer",
        "description": {
          "schema:PropertyValue": {
            "lang": "en",
            "value": "Analysis Date"
          }
        },
        "name": "ADT",
        "length": 8
      }
    ],
    "ADLBC.VISIT": [
      {
        "dataType": "text",
        "codeListRef": {
          "codeListOID": "VISIT"
        },
        "description": {
          "schema:PropertyValue": {
            "lang": "en",
            "value": "Visit Name"
          }
        },
        "name": "VISIT",
        "length": 19
      }
    ],
    "ADLBC.VISITNUM": [
      {
        "dataType": "float",
        "significantDigits": 1,
        "codeListRef": {
          "codeListOID": "VISITNUM"
        },
        "description": {
          "schema:PropertyValue": {
            "lang": "en",
            "value": "Visit Number"
          }
        },
        "name": "VISITNUM",
        "length": 8
      }
    ],
    "ADLBC.PARAM": [
      {
        "dataType": "text",
        "codeListRef": {
          "codeListOID": "PARAM_ADLBC"
        },
        "description": {
          "schema:PropertyValue": {
            "lang": "en",
            "value": "Parameter"
          }
        },
        "name": "PARAM",
        "length": 100
      }
    ],
    "ADLBC.PARAMCD": [
      {
        "dataType": "text",
        "codeListRef": {
          "codeListOID": "PARAMCD_ADLBC"
        },
        "description": {
          "schema:PropertyValue": {
            "lang": "en",
            "value": "Parameter Code"
          }
        },
        "name": "PARAMCD",
        "length": 8
      }
    ],
    "ADLBC.PARAMN": [
      {
        "dataType": "integer",
        "codeListRef": {
          "codeListOID": "PARAMN_ADLBC"
        },
        "description": {
          "schema:PropertyValue": {
            "lang": "en",
            "value": "Parameter (N)"
          }
        },
        "name": "PARAMN",
        "length": 8
      }
    ],
    "ADLBC.PARCAT1": [
      {
        "dataType": "text",
        "codeListRef": {
          "codeListOID": "ADLBCAT"
        },
        "description": {
          "schema:PropertyValue": {
            "lang": "en",
            "value": "Parameter Category 1"
          }
        },
        "name": "PARCAT1",
        "length": 5
      }
    ],
    "ADLBC.AVAL": [
      {
        "dataType": "float",
        "significantDigits": 5,
        "description": {
          "schema:PropertyValue": {
            "lang": "en",
            "value": "Analysis Value"
          }
        },
        "name": "AVAL",
        "length": 8
      }
    ],
    "ADLBC.BASE": [
      {
        "dataType": "float",
        "significantDigits": 5,
        "description": {
          "schema:PropertyValue": {
            "lang": "en",
            "value": "Baseline Value"
          }
        },
        "name": "BASE",
        "length": 8
      }
    ],
    "ADLBC.CHG": [
      {
        "dataType": "float",
        "significantDigits": 5,
        "description": {
          "schema:PropertyValue": {
            "lang": "en",
            "value": "Change from Baseline"
          }
        },
        "name": "CHG",
        "length": 8
      }
    ],
    "ADLBC.A1LO": [
      {
        "dataType": "float",
        "significantDigits": 5,
        "description": {
          "schema:PropertyValue": {
            "lang": "en",
            "value": "Analysis Range 1 Lower Limit"
          }
        },
        "name": "A1LO",
        "length": 8
      }
    ],
    "ADLBC.A1HI": [
      {
        "dataType": "float",
        "significantDigits": 5,
        "description": {
          "schema:PropertyValue": {
            "lang": "en",
            "value": "Analysis Range 1 Upper Limit"
          }
        },
        "name": "A1HI",
        "length": 8
      }
    ],
    "ADLBC.R2A1LO": [
      {
        "dataType": "float",
        "significantDigits": 1,
        "description": {
          "schema:PropertyValue": {
            "lang": "en",
            "value": "Ratio to Analysis Range 1 Lower Limit"
          }
        },
        "name": "R2A1LO",
        "length": 8
      }
    ],
    "ADLBC.R2A1HI": [
      {
        "dataType": "float",
        "significantDigits": 1,
        "description": {
          "schema:PropertyValue": {
            "lang": "en",
            "value": "Ratio to Analysis Range 1 Upper Limit"
          }
        },
        "name": "R2A1HI",
        "length": 8
      }
    ],
    "ADLBC.BR2A1LO": [
      {
        "dataType": "float",
        "significantDigits": 1,
        "description": {
          "schema:PropertyValue": {
            "lang": "en",
            "value": "Base Ratio to Analysis Range 1 Lower Lim"
          }
        },
        "name": "BR2A1LO",
        "length": 8
      }
    ],
    "ADLBC.BR2A1HI": [
      {
        "dataType": "float",
        "significantDigits": 1,
        "description": {
          "schema:PropertyValue": {
            "lang": "en",
            "value": "Base Ratio to Analysis Range 1 Upper Lim"
          }
        },
        "name": "BR2A1HI",
        "length": 8
      }
    ],
    "ADLBC.ANL01FL": [
      {
        "dataType": "text",
        "codeListRef": {
          "codeListOID": "Y_BLANK"
        },
        "description": {
          "schema:PropertyValue": {
            "lang": "en",
            "value": "Analysis Record Flag 1"
          }
        },
        "name": "ANL01FL",
        "length": 1
      }
    ],
    "ADLBC.ALBTRVAL": [
      {
        "dataType": "float",
        "significantDigits": 3,
        "description": {
          "schema:PropertyValue": {
            "lang": "en",
            "value": "Amount Threshold Range"
          }
        },
        "name": "ALBTRVAL",
        "length": 8
      }
    ],
    "ADLBC.ANRIND": [
      {
        "dataType": "text",
        "codeListRef": {
          "codeListOID": "LNH"
        },
        "description": {
          "schema:PropertyValue": {
            "lang": "en",
            "value": "Analysis Reference Range Indicator"
          }
        },
        "name": "ANRIND",
        "length": 1
      }
    ],
    "ADLBC.BNRIND": [
      {
        "dataType": "text",
        "codeListRef": {
          "codeListOID": "LNH"
        },
        "description": {
          "schema:PropertyValue": {
            "lang": "en",
            "value": "Baseline Reference Range Indicator"
          }
        },
        "name": "BNRIND",
        "length": 1
      }
    ],
    "ADLBC.ABLFL": [
      {
        "dataType": "text",
        "codeListRef": {
          "codeListOID": "Y_BLANK"
        },
        "description": {
          "schema:PropertyValue": {
            "lang": "en",
            "value": "Baseline Record Flag"
          }
        },
        "name": "ABLFL",
        "length": 1
      }
    ],
    "ADLBC.AENTMTFL": [
      {
        "dataType": "text",
        "codeListRef": {
          "codeListOID": "Y_BLANK"
        },
        "description": {
          "schema:PropertyValue": {
            "lang": "en",
            "value": "Last value in treatment visit"
          }
        },
        "name": "AENTMTFL",
        "length": 1
      }
    ],
    "ADLBC.LBSEQ": [
      {
        "dataType": "integer",
        "description": {
          "schema:PropertyValue": {
            "lang": "en",
            "value": "Sequence Number"
          }
        },
        "name": "LBSEQ",
        "length": 8
      }
    ],
    "ADLBC.LBNRIND": [
      {
        "dataType": "text",
        "codeListRef": {
          "codeListOID": "LBNRIND"
        },
        "description": {
          "schema:PropertyValue": {
            "lang": "en",
            "value": "Reference Range Indicator"
          }
        },
        "name": "LBNRIND",
        "length": 8
      }
    ],
    "ADLBC.LBSTRESN": [
      {
        "dataType": "float",
        "significantDigits": 5,
        "description": {
          "schema:PropertyValue": {
            "lang": "en",
            "value": "Numeric Result/Finding in Standard Units"
          }
        },
        "name": "LBSTRESN",
        "length": 8
      }
    ],
    "ADLBH.STUDYID": [
      {
        "dataType": "text",
        "description": {
          "schema:PropertyValue": {
            "lang": "en",
            "value": "Study Identifier"
          }
        },
        "name": "STUDYID",
        "length": 12
      }
    ],
    "ADLBH.SUBJID": [
      {
        "dataType": "text",
        "description": {
          "schema:PropertyValue": {
            "lang": "en",
            "value": "Subject Identifier for the Study"
          }
        },
        "name": "SUBJID",
        "length": 4
      }
    ],
    "ADLBH.USUBJID": [
      {
        "dataType": "text",
        "description": {
          "schema:PropertyValue": {
            "lang": "en",
            "value": "Unique Subject Identifier"
          }
        },
        "name": "USUBJID",
        "length": 11
      }
    ],
    "ADLBH.TRTP": [
      {
        "dataType": "text",
        "codeListRef": {
          "codeListOID": "ARM"
        },
        "description": {
          "schema:PropertyValue": {
            "lang": "en",
            "value": "Planned Treatment"
          }
        },
        "name": "TRTP",
        "length": 20
      }
    ],
    "ADLBH.TRTPN": [
      {
        "dataType": "integer",
        "codeListRef": {
          "codeListOID": "ARMN"
        },
        "description": {
          "schema:PropertyValue": {
            "lang": "en",
            "value": "Planned Treatment (N)"
          }
        },
        "name": "TRTPN",
        "length": 8
      }
    ],
    "ADLBH.TRTA": [
      {
        "dataType": "text",
        "codeListRef": {
          "codeListOID": "ARM"
        },
        "description": {
          "schema:PropertyValue": {
            "lang": "en",
            "value": "Actual Treatment"
          }
        },
        "name": "TRTA",
        "length": 20
      }
    ],
    "ADLBH.TRTAN": [
      {
        "dataType": "integer",
        "codeListRef": {
          "codeListOID": "ARMN"
        },
        "description": {
          "schema:PropertyValue": {
            "lang": "en",
            "value": "Actual Treatment (N)"
          }
        },
        "name": "TRTAN",
        "length": 8
      }
    ],
    "ADLBH.TRTSDT": [
      {
        "dataType": "integer",
        "description": {
          "schema:PropertyValue": {
            "lang": "en",
            "value": "Date of First Exposure to Treatment"
          }
        },
        "name": "TRTSDT",
        "length": 8
      }
    ],
    "ADLBH.TRTEDT": [
      {
        "dataType": "integer",
        "description": {
          "schema:PropertyValue": {
            "lang": "en",
            "value": "Date of Last Exposure to Treatment"
          }
        },
        "name": "TRTEDT",
        "length": 8
      }
    ],
    "ADLBH.AGE": [
      {
        "dataType": "integer",
        "description": {
          "schema:PropertyValue": {
            "lang": "en",
            "value": "Age"
          }
        },
        "name": "AGE",
        "length": 8
      }
    ],
    "ADLBH.AGEGR1": [
      {
        "dataType": "text",
        "codeListRef": {
          "codeListOID": "AGEGR1"
        },
        "description": {
          "schema:PropertyValue": {
            "lang": "en",
            "value": "Pooled Age Group 1"
          }
        },
        "name": "AGEGR1",
        "length": 5
      }
    ],
    "ADLBH.AGEGR1N": [
      {
        "dataType": "integer",
        "codeListRef": {
          "codeListOID": "AGEGR1N"
        },
        "description": {
          "schema:PropertyValue": {
            "lang": "en",
            "value": "Pooled Age Group 1 (N)"
          }
        },
        "name": "AGEGR1N",
        "length": 8
      }
    ],
    "ADLBH.RACE": [
      {
        "dataType": "text",
        "codeListRef": {
          "codeListOID": "RACE"
        },
        "description": {
          "schema:PropertyValue": {
            "lang": "en",
            "value": "Race"
          }
        },
        "name": "RACE",
        "length": 32
      }
    ],
    "ADLBH.RACEN": [
      {
        "dataType": "integer",
        "codeListRef": {
          "codeListOID": "RACEN"
        },
        "description": {
          "schema:PropertyValue": {
            "lang": "en",
            "value": "Race (N)"
          }
        },
        "name": "RACEN",
        "length": 8
      }
    ],
    "ADLBH.SEX": [
      {
        "dataType": "text",
        "codeListRef": {
          "codeListOID": "SEX"
        },
        "description": {
          "schema:PropertyValue": {
            "lang": "en",
            "value": "Sex"
          }
        },
        "name": "SEX",
        "length": 1
      }
    ],
    "ADLBH.COMP24FL": [
      {
        "dataType": "text",
        "codeListRef": {
          "codeListOID": "YN"
        },
        "description": {
          "schema:PropertyValue": {
            "lang": "en",
            "value": "Completers of Week 24 Population Flag"
          }
        },
        "name": "COMP24FL",
        "length": 1
      }
    ],
    "ADLBH.DSRAEFL": [
      {
        "dataType": "text",
        "codeListRef": {
          "codeListOID": "YN"
        },
        "description": {
          "schema:PropertyValue": {
            "lang": "en",
            "value": "Discontinued due to AE?"
          }
        },
        "name": "DSRAEFL",
        "length": 1
      }
    ],
    "ADLBH.SAFFL": [
      {
        "dataType": "text",
        "codeListRef": {
          "codeListOID": "YN"
        },
        "description": {
          "schema:PropertyValue": {
            "lang": "en",
            "value": "Safety Population Flag"
          }
        },
        "name": "SAFFL",
        "length": 1
      }
    ],
    "ADLBH.AVISIT": [
      {
        "dataType": "text",
        "codeListRef": {
          "codeListOID": "AVISIT"
        },
        "description": {
          "schema:PropertyValue": {
            "lang": "en",
            "value": "Analysis Visit"
          }
        },
        "name": "AVISIT",
        "length": 16
      }
    ],
    "ADLBH.AVISITN": [
      {
        "dataType": "integer",
        "codeListRef": {
          "codeListOID": "AVISITN"
        },
        "description": {
          "schema:PropertyValue": {
            "lang": "en",
            "value": "Analysis Visit (N)"
          }
        },
        "name": "AVISITN",
        "length": 8
      }
    ],
    "ADLBH.ADY": [
      {
        "dataType": "integer",
        "description": {
          "schema:PropertyValue": {
            "lang": "en",
            "value": "Analysis Relative Day"
          }
        },
        "name": "ADY",
        "length": 8
      }
    ],
    "ADLBH.ADT": [
      {
        "dataType": "integer",
        "description": {
          "schema:PropertyValue": {
            "lang": "en",
            "value": "Analysis Date"
          }
        },
        "name": "ADT",
        "length": 8
      }
    ],
    "ADLBH.VISIT": [
      {
        "dataType": "text",
        "codeListRef": {
          "codeListOID": "VISIT"
        },
        "description": {
          "schema:PropertyValue": {
            "lang": "en",
            "value": "Visit Name"
          }
        },
        "name": "VISIT",
        "length": 19
      }
    ],
    "ADLBH.VISITNUM": [
      {
        "dataType": "float",
        "significantDigits": 1,
        "codeListRef": {
          "codeListOID": "VISITNUM"
        },
        "description": {
          "schema:PropertyValue": {
            "lang": "en",
            "value": "Visit Number"
          }
        },
        "name": "VISITNUM",
        "length": 8
      }
    ],
    "ADLBH.PARAM": [
      {
        "dataType": "text",
        "codeListRef": {
          "codeListOID": "PARAM_ADLBH"
        },
        "description": {
          "schema:PropertyValue": {
            "lang": "en",
            "value": "Parameter"
          }
        },
        "name": "PARAM",
        "length": 100
      }
    ],
    "ADLBH.PARAMCD": [
      {
        "dataType": "text",
        "codeListRef": {
          "codeListOID": "PARAMCD_ADLBH"
        },
        "description": {
          "schema:PropertyValue": {
            "lang": "en",
            "value": "Parameter Code"
          }
        },
        "name": "PARAMCD",
        "length": 8
      }
    ],
    "ADLBH.PARAMN": [
      {
        "dataType": "integer",
        "codeListRef": {
          "codeListOID": "PARAMN_ADLBH"
        },
        "description": {
          "schema:PropertyValue": {
            "lang": "en",
            "value": "Parameter (N)"
          }
        },
        "name": "PARAMN",
        "length": 8
      }
    ],
    "ADLBH.PARCAT1": [
      {
        "dataType": "text",
        "codeListRef": {
          "codeListOID": "ADLBCAT"
        },
        "description": {
          "schema:PropertyValue": {
            "lang": "en",
            "value": "Parameter Category 1"
          }
        },
        "name": "PARCAT1",
        "length": 5
      }
    ],
    "ADLBH.AVAL": [
      {
        "dataType": "float",
        "significantDigits": 5,
        "description": {
          "schema:PropertyValue": {
            "lang": "en",
            "value": "Analysis Value"
          }
        },
        "name": "AVAL",
        "length": 8
      }
    ],
    "ADLBH.BASE": [
      {
        "dataType": "float",
        "significantDigits": 5,
        "description": {
          "schema:PropertyValue": {
            "lang": "en",
            "value": "Baseline Value"
          }
        },
        "name": "BASE",
        "length": 8
      }
    ],
    "ADLBH.CHG": [
      {
        "dataType": "float",
        "significantDigits": 5,
        "description": {
          "schema:PropertyValue": {
            "lang": "en",
            "value": "Change from Baseline"
          }
        },
        "name": "CHG",
        "length": 8
      }
    ],
    "ADLBH.A1LO": [
      {
        "dataType": "float",
        "significantDigits": 5,
        "description": {
          "schema:PropertyValue": {
            "lang": "en",
            "value": "Analysis Range 1 Lower Limit"
          }
        },
        "name": "A1LO",
        "length": 8
      }
    ],
    "ADLBH.A1HI": [
      {
        "dataType": "float",
        "significantDigits": 5,
        "description": {
          "schema:PropertyValue": {
            "lang": "en",
            "value": "Analysis Range 1 Upper Limit"
          }
        },
        "name": "A1HI",
        "length": 8
      }
    ],
    "ADLBH.R2A1LO": [
      {
        "dataType": "float",
        "significantDigits": 1,
        "description": {
          "schema:PropertyValue": {
            "lang": "en",
            "value": "Ratio to Analysis Range 1 Lower Limit"
          }
        },
        "name": "R2A1LO",
        "length": 8
      }
    ],
    "ADLBH.R2A1HI": [
      {
        "dataType": "float",
        "significantDigits": 1,
        "description": {
          "schema:PropertyValue": {
            "lang": "en",
            "value": "Ratio to Analysis Range 1 Upper Limit"
          }
        },
        "name": "R2A1HI",
        "length": 8
      }
    ],
    "ADLBH.BR2A1LO": [
      {
        "dataType": "float",
        "significantDigits": 1,
        "description": {
          "schema:PropertyValue": {
            "lang": "en",
            "value": "Base Ratio to Analysis Range 1 Lower Lim"
          }
        },
        "name": "BR2A1LO",
        "length": 8
      }
    ],
    "ADLBH.BR2A1HI": [
      {
        "dataType": "float",
        "significantDigits": 1,
        "description": {
          "schema:PropertyValue": {
            "lang": "en",
            "value": "Base Ratio to Analysis Range 1 Upper Lim"
          }
        },
        "name": "BR2A1HI",
        "length": 8
      }
    ],
    "ADLBH.ANL01FL": [
      {
        "dataType": "text",
        "codeListRef": {
          "codeListOID": "Y_BLANK"
        },
        "description": {
          "schema:PropertyValue": {
            "lang": "en",
            "value": "Analysis Record Flag 1"
          }
        },
        "name": "ANL01FL",
        "length": 1
      }
    ],
    "ADLBH.ALBTRVAL": [
      {
        "dataType": "float",
        "significantDigits": 3,
        "description": {
          "schema:PropertyValue": {
            "lang": "en",
            "value": "Amount Threshold Range"
          }
        },
        "name": "ALBTRVAL",
        "length": 8
      }
    ],
    "ADLBH.ANRIND": [
      {
        "dataType": "text",
        "codeListRef": {
          "codeListOID": "LNH"
        },
        "description": {
          "schema:PropertyValue": {
            "lang": "en",
            "value": "Analysis Reference Range Indicator"
          }
        },
        "name": "ANRIND",
        "length": 1
      }
    ],
    "ADLBH.BNRIND": [
      {
        "dataType": "text",
        "codeListRef": {
          "codeListOID": "LNH"
        },
        "description": {
          "schema:PropertyValue": {
            "lang": "en",
            "value": "Baseline Reference Range Indicator"
          }
        },
        "name": "BNRIND",
        "length": 1
      }
    ],
    "ADLBH.ABLFL": [
      {
        "dataType": "text",
        "codeListRef": {
          "codeListOID": "Y_BLANK"
        },
        "description": {
          "schema:PropertyValue": {
            "lang": "en",
            "value": "Baseline Record Flag"
          }
        },
        "name": "ABLFL",
        "length": 1
      }
    ],
    "ADLBH.AENTMTFL": [
      {
        "dataType": "text",
        "codeListRef": {
          "codeListOID": "Y_BLANK"
        },
        "description": {
          "schema:PropertyValue": {
            "lang": "en",
            "value": "Last value in treatment visit"
          }
        },
        "name": "AENTMTFL",
        "length": 1
      }
    ],
    "ADLBH.LBSEQ": [
      {
        "dataType": "integer",
        "description": {
          "schema:PropertyValue": {
            "lang": "en",
            "value": "Sequence Number"
          }
        },
        "name": "LBSEQ",
        "length": 8
      }
    ],
    "ADLBH.LBNRIND": [
      {
        "dataType": "text",
        "codeListRef": {
          "codeListOID": "LBNRIND"
        },
        "description": {
          "schema:PropertyValue": {
            "lang": "en",
            "value": "Reference Range Indicator"
          }
        },
        "name": "LBNRIND",
        "length": 8
      }
    ],
    "ADLBH.LBSTRESN": [
      {
        "dataType": "float",
        "significantDigits": 5,
        "description": {
          "schema:PropertyValue": {
            "lang": "en",
            "value": "Numeric Result/Finding in Standard Units"
          }
        },
        "name": "LBSTRESN",
        "length": 8
      }
    ],
    "ADLBHY.STUDYID": [
      {
        "dataType": "text",
        "description": {
          "schema:PropertyValue": {
            "lang": "en",
            "value": "Study Identifier"
          }
        },
        "name": "STUDYID",
        "length": 12
      }
    ],
    "ADLBHY.SUBJID": [
      {
        "dataType": "text",
        "description": {
          "schema:PropertyValue": {
            "lang": "en",
            "value": "Subject Identifier for the Study"
          }
        },
        "name": "SUBJID",
        "length": 4
      }
    ],
    "ADLBHY.USUBJID": [
      {
        "dataType": "text",
        "description": {
          "schema:PropertyValue": {
            "lang": "en",
            "value": "Unique Subject Identifier"
          }
        },
        "name": "USUBJID",
        "length": 11
      }
    ],
    "ADLBHY.TRTP": [
      {
        "dataType": "text",
        "codeListRef": {
          "codeListOID": "ARM"
        },
        "description": {
          "schema:PropertyValue": {
            "lang": "en",
            "value": "Planned Treatment"
          }
        },
        "name": "TRTP",
        "length": 20
      }
    ],
    "ADLBHY.TRTPN": [
      {
        "dataType": "integer",
        "codeListRef": {
          "codeListOID": "ARMN"
        },
        "description": {
          "schema:PropertyValue": {
            "lang": "en",
            "value": "Planned Treatment (N)"
          }
        },
        "name": "TRTPN",
        "length": 8
      }
    ],
    "ADLBHY.TRTA": [
      {
        "dataType": "text",
        "codeListRef": {
          "codeListOID": "ARM"
        },
        "description": {
          "schema:PropertyValue": {
            "lang": "en",
            "value": "Actual Treatment"
          }
        },
        "name": "TRTA",
        "length": 20
      }
    ],
    "ADLBHY.TRTAN": [
      {
        "dataType": "integer",
        "codeListRef": {
          "codeListOID": "ARMN"
        },
        "description": {
          "schema:PropertyValue": {
            "lang": "en",
            "value": "Actual Treatment (N)"
          }
        },
        "name": "TRTAN",
        "length": 8
      }
    ],
    "ADLBHY.TRTSDT": [
      {
        "dataType": "integer",
        "description": {
          "schema:PropertyValue": {
            "lang": "en",
            "value": "Date of First Exposure to Treatment"
          }
        },
        "name": "TRTSDT",
        "length": 8
      }
    ],
    "ADLBHY.TRTEDT": [
      {
        "dataType": "integer",
        "description": {
          "schema:PropertyValue": {
            "lang": "en",
            "value": "Date of Last Exposure to Treatment"
          }
        },
        "name": "TRTEDT",
        "length": 8
      }
    ],
    "ADLBHY.AGE": [
      {
        "dataType": "integer",
        "description": {
          "schema:PropertyValue": {
            "lang": "en",
            "value": "Age"
          }
        },
        "name": "AGE",
        "length": 8
      }
    ],
    "ADLBHY.AGEGR1": [
      {
        "dataType": "text",
        "codeListRef": {
          "codeListOID": "AGEGR1"
        },
        "description": {
          "schema:PropertyValue": {
            "lang": "en",
            "value": "Pooled Age Group 1"
          }
        },
        "name": "AGEGR1",
        "length": 5
      }
    ],
    "ADLBHY.AGEGR1N": [
      {
        "dataType": "integer",
        "codeListRef": {
          "codeListOID": "AGEGR1N"
        },
        "description": {
          "schema:PropertyValue": {
            "lang": "en",
            "value": "Pooled Age Group 1 (N)"
          }
        },
        "name": "AGEGR1N",
        "length": 8
      }
    ],
    "ADLBHY.RACE": [
      {
        "dataType": "text",
        "codeListRef": {
          "codeListOID": "RACE"
        },
        "description": {
          "schema:PropertyValue": {
            "lang": "en",
            "value": "Race"
          }
        },
        "name": "RACE",
        "length": 32
      }
    ],
    "ADLBHY.RACEN": [
      {
        "dataType": "integer",
        "codeListRef": {
          "codeListOID": "RACEN"
        },
        "description": {
          "schema:PropertyValue": {
            "lang": "en",
            "value": "Race (N)"
          }
        },
        "name": "RACEN",
        "length": 8
      }
    ],
    "ADLBHY.SEX": [
      {
        "dataType": "text",
        "codeListRef": {
          "codeListOID": "SEX"
        },
        "description": {
          "schema:PropertyValue": {
            "lang": "en",
            "value": "Sex"
          }
        },
        "name": "SEX",
        "length": 1
      }
    ],
    "ADLBHY.COMP24FL": [
      {
        "dataType": "text",
        "codeListRef": {
          "codeListOID": "YN"
        },
        "description": {
          "schema:PropertyValue": {
            "lang": "en",
            "value": "Completers of Week 24 Population Flag"
          }
        },
        "name": "COMP24FL",
        "length": 1
      }
    ],
    "ADLBHY.DSRAEFL": [
      {
        "dataType": "text",
        "codeListRef": {
          "codeListOID": "YN"
        },
        "description": {
          "schema:PropertyValue": {
            "lang": "en",
            "value": "Discontinued due to AE?"
          }
        },
        "name": "DSRAEFL",
        "length": 1
      }
    ],
    "ADLBHY.SAFFL": [
      {
        "dataType": "text",
        "codeListRef": {
          "codeListOID": "YN"
        },
        "description": {
          "schema:PropertyValue": {
            "lang": "en",
            "value": "Safety Population Flag"
          }
        },
        "name": "SAFFL",
        "length": 1
      }
    ],
    "ADLBHY.AVISIT": [
      {
        "dataType": "text",
        "codeListRef": {
          "codeListOID": "AVISIT"
        },
        "description": {
          "schema:PropertyValue": {
            "lang": "en",
            "value": "Analysis Visit"
          }
        },
        "name": "AVISIT",
        "length": 16
      }
    ],
    "ADLBHY.AVISITN": [
      {
        "dataType": "integer",
        "codeListRef": {
          "codeListOID": "AVISITN"
        },
        "description": {
          "schema:PropertyValue": {
            "lang": "en",
            "value": "Analysis Visit (N)"
          }
        },
        "name": "AVISITN",
        "length": 8
      }
    ],
    "ADLBHY.ADY": [
      {
        "dataType": "integer",
        "description": {
          "schema:PropertyValue": {
            "lang": "en",
            "value": "Analysis Relative Day"
          }
        },
        "name": "ADY",
        "length": 8
      }
    ],
    "ADLBHY.ADT": [
      {
        "dataType": "integer",
        "description": {
          "schema:PropertyValue": {
            "lang": "en",
            "value": "Analysis Date"
          }
        },
        "name": "ADT",
        "length": 8
      }
    ],
    "ADLBHY.VISIT": [
      {
        "dataType": "text",
        "codeListRef": {
          "codeListOID": "VISIT"
        },
        "description": {
          "schema:PropertyValue": {
            "lang": "en",
            "value": "Visit Name"
          }
        },
        "name": "VISIT",
        "length": 19
      }
    ],
    "ADLBHY.VISITNUM": [
      {
        "dataType": "float",
        "significantDigits": 1,
        "codeListRef": {
          "codeListOID": "VISITNUM"
        },
        "description": {
          "schema:PropertyValue": {
            "lang": "en",
            "value": "Visit Number"
          }
        },
        "name": "VISITNUM",
        "length": 8
      }
    ],
    "ADLBHY.PARAMTYP": [
      {
        "dataType": "text",
        "codeListRef": {
          "codeListOID": "PARAMTYP"
        },
        "description": {
          "schema:PropertyValue": {
            "lang": "en",
            "value": "Parameter Type"
          }
        },
        "name": "PARAMTYP",
        "length": 7
      }
    ],
    "ADLBHY.PARAM": [
      {
        "dataType": "text",
        "codeListRef": {
          "codeListOID": "PARAM_ADLBHY"
        },
        "description": {
          "schema:PropertyValue": {
            "lang": "en",
            "value": "Parameter"
          }
        },
        "name": "PARAM",
        "length": 100
      }
    ],
    "ADLBHY.PARAMCD": [
      {
        "dataType": "text",
        "codeListRef": {
          "codeListOID": "PARAMCD_ADLBHY"
        },
        "description": {
          "schema:PropertyValue": {
            "lang": "en",
            "value": "Parameter Code"
          }
        },
        "name": "PARAMCD",
        "length": 8
      }
    ],
    "ADLBHY.PARAMN": [
      {
        "dataType": "integer",
        "codeListRef": {
          "codeListOID": "PARAMN_ADLBHY"
        },
        "description": {
          "schema:PropertyValue": {
            "lang": "en",
            "value": "Parameter (N)"
          }
        },
        "name": "PARAMN",
        "length": 8
      }
    ],
    "ADLBHY.PARCAT1": [
      {
        "dataType": "text",
        "codeListRef": {
          "codeListOID": "ADLBCAT"
        },
        "description": {
          "schema:PropertyValue": {
            "lang": "en",
            "value": "Parameter Category 1"
          }
        },
        "name": "PARCAT1",
        "length": 5
      }
    ],
    "ADLBHY.AVAL": [
      {
        "dataType": "float",
        "significantDigits": 2,
        "description": {
          "schema:PropertyValue": {
            "lang": "en",
            "value": "Analysis Value"
          }
        },
        "name": "AVAL",
        "length": 8
      }
    ],
    "ADLBHY.BASE": [
      {
        "dataType": "float",
        "significantDigits": 2,
        "description": {
          "schema:PropertyValue": {
            "lang": "en",
            "value": "Baseline Value"
          }
        },
        "name": "BASE",
        "length": 8
      }
    ],
    "ADLBHY.A1LO": [
      {
        "dataType": "float",
        "significantDigits": 1,
        "description": {
          "schema:PropertyValue": {
            "lang": "en",
            "value": "Analysis Range 1 Lower Limit"
          }
        },
        "name": "A1LO",
        "length": 8
      }
    ],
    "ADLBHY.A1HI": [
      {
        "dataType": "float",
        "significantDigits": 1,
        "description": {
          "schema:PropertyValue": {
            "lang": "en",
            "value": "Analysis Range 1 Upper Limit"
          }
        },
        "name": "A1HI",
        "length": 8
      }
    ],
    "ADLBHY.R2A1LO": [
      {
        "dataType": "float",
        "significantDigits": 1,
        "description": {
          "schema:PropertyValue": {
            "lang": "en",
            "value": "Ratio to Analysis Range 1 Lower Limit"
          }
        },
        "name": "R2A1LO",
        "length": 8
      }
    ],
    "ADLBHY.R2A1HI": [
      {
        "dataType": "float",
        "significantDigits": 1,
        "description": {
          "schema:PropertyValue": {
            "lang": "en",
            "value": "Ratio to Analysis Range 1 Upper Limit"
          }
        },
        "name": "R2A1HI",
        "length": 8
      }
    ],
    "ADLBHY.BR2A1LO": [
      {
        "dataType": "float",
        "significantDigits": 1,
        "description": {
          "schema:PropertyValue": {
            "lang": "en",
            "value": "Base Ratio to Analysis Range 1 Lower Lim"
          }
        },
        "name": "BR2A1LO",
        "length": 8
      }
    ],
    "ADLBHY.BR2A1HI": [
      {
        "dataType": "float",
        "significantDigits": 1,
        "description": {
          "schema:PropertyValue": {
            "lang": "en",
            "value": "Base Ratio to Analysis Range 1 Upper Lim"
          }
        },
        "name": "BR2A1HI",
        "length": 8
      }
    ],
    "ADLBHY.ABLFL": [
      {
        "dataType": "text",
        "codeListRef": {
          "codeListOID": "Y_BLANK"
        },
        "description": {
          "schema:PropertyValue": {
            "lang": "en",
            "value": "Baseline Record Flag"
          }
        },
        "name": "ABLFL",
        "length": 1
      }
    ],
    "ADLBHY.SHIFT1": [
      {
        "dataType": "text",
        "codeListRef": {
          "codeListOID": "SHIFT"
        },
        "description": {
          "schema:PropertyValue": {
            "lang": "en",
            "value": "Shift 1"
          }
        },
        "name": "SHIFT1",
        "length": 16
      }
    ],
    "ADLBHY.SHIFT1N": [
      {
        "dataType": "integer",
        "codeListRef": {
          "codeListOID": "SHIFTN"
        },
        "description": {
          "schema:PropertyValue": {
            "lang": "en",
            "value": "Shift 1 (N)"
          }
        },
        "name": "SHIFT1N",
        "length": 8
      }
    ],
    "ADLBHY.CRIT1": [
      {
        "dataType": "text",
        "description": {
          "schema:PropertyValue": {
            "lang": "en",
            "value": "Analysis Criterion 1"
          }
        },
        "name": "CRIT1",
        "length": 12
      }
    ],
    "ADLBHY.CRIT1FL": [
      {
        "dataType": "text",
        "codeListRef": {
          "codeListOID": "YN"
        },
        "description": {
          "schema:PropertyValue": {
            "lang": "en",
            "value": "Criterion 1 Evaluation Result Flag"
          }
        },
        "name": "CRIT1FL",
        "length": 1
      }
    ],
    "ADLBHY.CRIT1FN": [
      {
        "dataType": "integer",
        "codeListRef": {
          "codeListOID": "YNN"
        },
        "description": {
          "schema:PropertyValue": {
            "lang": "en",
            "value": "Criterion 1 Evaluation Result Flag (N)"
          }
        },
        "name": "CRIT1FN",
        "length": 8
      }
    ],
    "ADQSADAS.STUDYID": [
      {
        "dataType": "text",
        "description": {
          "schema:PropertyValue": {
            "lang": "en",
            "value": "Study Identifier"
          }
        },
